# OpenSignals Text File Format
# {"00:07:80:3B:46:58": {"sensor": ["EMG", "EMG"], "device name": "00:07:80:3B:46:58", "column": ["nSeq", "DI", "ACC X", "ACC Y"], "sync interval": 2, "time": "16:6:59.849", "comments": "", "device connection": "BTH00:07:80:3B:46:58", "channels": [1, 2], "date": "2016-8-24", "mode": 0, "digital IO": [0, 1], "firmware version": 772, "device": "biosignalsplux", "position": 0, "sampling rate": 1000, "label": ["ACC X", "ACC Y"], "resolution": [16, 16], "special": [{}, {}]}}
# EndOfHeader
0	0	31746	32486	
1	0	31809	32658	
2	0	32228	32832	
3	0	33732	32514	
4	0	34202	32357	
5	0	33594	32435	
6	0	33098	32692	
7	0	32652	32714	
8	0	32762	32871	
9	0	32984	32889	
10	0	32950	32512	
11	0	32691	32761	
12	0	32488	32586	
13	0	32420	32475	
14	0	32676	32570	
15	0	32834	32509	
16	0	32972	33071	
17	0	32824	33081	
18	0	32770	32821	
19	0	32624	33010	
20	0	32340	33017	
21	0	32076	32688	
22	0	31924	32548	
23	0	31976	32447	
24	0	32148	32629	
25	0	32276	32791	
26	0	32377	32839	
27	0	32682	32656	
28	0	33118	32822	
29	0	33278	32754	
30	0	33516	32620	
31	0	33512	32824	
32	0	33728	32876	
33	0	33898	32549	
34	0	34368	32720	
35	0	33992	32738	
36	0	33113	32717	
37	0	32334	32516	
38	0	31816	32530	
39	0	31518	32699	
40	0	31284	32770	
41	0	31464	32806	
42	0	31772	32580	
43	0	32128	32743	
44	0	32490	33057	
45	0	33080	32836	
46	0	33824	33023	
47	0	33755	32763	
48	0	33440	32901	
49	0	33268	32587	
50	0	32946	32434	
51	0	32642	32630	
52	0	32576	32455	
53	0	33018	32652	
54	0	33240	32605	
55	0	33112	32518	
56	0	33010	32720	
57	0	33220	32534	
58	0	33080	33067	
59	0	32584	32954	
60	0	32248	32991	
61	0	31906	32936	
62	0	31801	32756	
63	0	31931	32950	
64	0	32133	32283	
65	0	32248	32336	
66	0	32568	32821	
67	0	33306	32922	
68	0	33600	32713	
69	0	33360	32431	
70	0	33092	32450	
71	0	32833	32967	
72	0	32628	32831	
73	0	32384	32402	
74	0	32536	32600	
75	0	32782	32549	
76	0	32893	32640	
77	0	32952	32920	
78	0	32868	32808	
79	0	32752	33043	
80	0	32646	32843	
81	0	32668	32711	
82	0	32584	33114	
83	0	32604	33008	
84	0	32474	33268	
85	0	32554	32950	
86	0	32704	32879	
87	0	33709	32751	
88	0	34064	32334	
89	0	34586	32673	
90	0	34124	32396	
91	0	33378	32762	
92	0	32528	32553	
93	0	31876	32575	
94	0	31448	32343	
95	0	31363	32331	
96	0	31424	32573	
97	0	31672	32466	
98	0	31938	32471	
99	0	32040	32815	
100	0	32276	32897	
101	0	32980	32826	
102	0	33284	32839	
103	0	33216	32979	
104	0	33160	32747	
105	0	32978	32922	
106	0	32884	33063	
107	0	33000	32763	
108	0	32954	32870	
109	0	32807	32647	
110	0	32661	32780	
111	0	32580	32909	
112	0	32904	32722	
113	0	33720	33047	
114	0	33866	32993	
115	0	34196	32795	
116	0	33999	32859	
117	0	33360	32551	
118	0	32844	32307	
119	0	32132	32441	
120	0	31640	32364	
121	0	31448	32162	
122	0	31432	32305	
123	0	31594	32465	
124	0	31830	32760	
125	0	31874	32735	
126	0	32124	32793	
127	0	32379	32966	
128	0	32652	33102	
129	0	32732	33314	
130	0	32733	32931	
131	0	33291	32528	
132	0	33392	32677	
133	0	33316	32613	
134	0	33094	32640	
135	0	33038	32937	
136	0	32876	32908	
137	0	32756	32893	
138	0	32588	32874	
139	0	32712	32613	
140	0	32886	32518	
141	0	33088	32655	
142	0	33032	32549	
143	0	33156	32606	
144	0	33192	32838	
145	0	33222	32918	
146	0	33168	32882	
147	0	32948	32965	
148	0	32616	33018	
149	0	32408	32494	
150	0	32376	32597	
151	0	32392	32448	
152	0	32504	32813	
153	0	32640	32690	
154	0	32804	32800	
155	0	32808	32929	
156	0	32720	32672	
157	0	32813	32588	
158	0	32858	32587	
159	0	32774	32642	
160	0	32608	32275	
161	0	32492	32562	
162	0	32466	32458	
163	0	32608	32676	
164	0	32688	32722	
165	0	32770	32760	
166	0	32746	32854	
167	0	32644	32687	
168	0	32646	32880	
169	0	32618	32974	
170	0	32732	32741	
171	0	32760	32566	
172	0	32757	33038	
173	0	32867	33189	
174	0	32936	33233	
175	0	32890	33257	
176	0	32953	32687	
177	0	32926	32594	
178	0	33064	32348	
179	0	33076	32618	
180	0	33181	32706	
181	0	33366	32321	
182	0	33928	32387	
183	0	33685	32327	
184	0	33064	32673	
185	0	32348	32897	
186	0	31792	32895	
187	0	31520	33298	
188	0	31456	33380	
189	0	31698	33027	
190	0	32116	33076	
191	0	32376	32676	
192	0	32690	32361	
193	0	32950	32278	
194	0	33176	32506	
195	0	33266	32613	
196	0	33077	32415	
197	0	32980	32430	
198	0	33472	32453	
199	0	33290	32492	
200	0	33092	32853	
201	0	32888	32946	
202	0	33132	33130	
203	0	32992	33021	
204	0	32740	32916	
205	0	32336	32642	
206	0	31996	32280	
207	0	31770	32671	
208	0	31654	32808	
209	0	31800	32910	
210	0	32236	32857	
211	0	32428	33122	
212	0	32604	32828	
213	0	32682	32891	
214	0	32840	32804	
215	0	32976	32575	
216	0	32953	32743	
217	0	32828	32545	
218	0	33048	32491	
219	0	33250	32640	
220	0	33437	32762	
221	0	33755	32567	
222	0	33848	32701	
223	0	33932	32824	
224	0	33436	32634	
225	0	32882	32962	
226	0	32336	32859	
227	0	31928	33127	
228	0	31593	33106	
229	0	31432	32775	
230	0	31492	32889	
231	0	31685	32662	
232	0	32146	32992	
233	0	32545	32706	
234	0	32904	32890	
235	0	33208	32455	
236	0	33388	32581	
237	0	33293	32312	
238	0	33140	32185	
239	0	33016	32167	
240	0	32832	32029	
241	0	32744	32343	
242	0	32764	33094	
243	0	32856	33086	
244	0	32838	33411	
245	0	32794	33108	
246	0	33024	33060	
247	0	33016	33071	
248	0	32956	32867	
249	0	32864	32758	
250	0	32752	32863	
251	0	32744	32701	
252	0	32704	32827	
253	0	32632	32830	
254	0	32634	32472	
255	0	32722	32339	
256	0	32820	32457	
257	0	32810	32182	
258	0	32752	32663	
259	0	32732	32603	
260	0	32737	32747	
261	0	32768	32944	
262	0	32714	32753	
263	0	32758	32912	
264	0	32772	32969	
265	0	32876	32642	
266	0	32830	32331	
267	0	32800	32537	
268	0	32752	32591	
269	0	32608	32876	
270	0	32617	33084	
271	0	32722	32711	
272	0	33062	32711	
273	0	33189	32476	
274	0	33042	32637	
275	0	32828	32681	
276	0	32712	32771	
277	0	32532	33779	
278	0	32394	33551	
279	0	32344	32830	
280	0	32328	32447	
281	0	32356	32326	
282	0	32352	32141	
283	0	32465	32390	
284	0	32740	32975	
285	0	33092	33113	
286	0	33262	33223	
287	0	33184	33538	
288	0	32978	33268	
289	0	32880	32989	
290	0	32842	32669	
291	0	32620	32295	
292	0	32620	31994	
293	0	32656	32142	
294	0	32648	32636	
295	0	32636	32534	
296	0	32746	32567	
297	0	32760	32755	
298	0	32728	32693	
299	0	32737	32710	
300	0	32672	32654	
301	0	32634	32487	
302	0	32670	32509	
303	0	32736	32632	
304	0	33322	33031	
305	0	33532	33175	
306	0	33432	32788	
307	0	33028	32805	
308	0	32566	32886	
309	0	32064	32770	
310	0	31968	32821	
311	0	32030	33104	
312	0	32197	32857	
313	0	32449	32534	
314	0	32612	32580	
315	0	32693	32395	
316	0	32880	32560	
317	0	33040	32645	
318	0	33033	32506	
319	0	32981	32397	
320	0	33402	32721	
321	0	33506	32847	
322	0	33226	32711	
323	0	32836	33250	
324	0	32434	33111	
325	0	32246	33159	
326	0	32226	33099	
327	0	32246	32719	
328	0	32416	32739	
329	0	32497	32736	
330	0	32664	32567	
331	0	32732	32428	
332	0	32950	32614	
333	0	32988	32488	
334	0	32966	32455	
335	0	33004	32841	
336	0	32852	32615	
337	0	32758	32407	
338	0	32644	32329	
339	0	32586	32413	
340	0	32584	33124	
341	0	32704	33141	
342	0	32630	33110	
343	0	32728	32925	
344	0	32763	32925	
345	0	32775	33353	
346	0	32744	32967	
347	0	32795	32455	
348	0	32842	32695	
349	0	32817	32484	
350	0	32789	33225	
351	0	32798	33199	
352	0	32789	33039	
353	0	32764	32416	
354	0	32750	32263	
355	0	32681	32453	
356	0	32635	32403	
357	0	32654	32752	
358	0	32736	32749	
359	0	32828	32434	
360	0	32824	32479	
361	0	32700	32463	
362	0	32793	32521	
363	0	32714	32890	
364	0	32760	32858	
365	0	32737	32799	
366	0	32771	32716	
367	0	32728	32508	
368	0	32728	32498	
369	0	32690	32635	
370	0	32790	32788	
371	0	32756	32844	
372	0	32762	32600	
373	0	32780	32707	
374	0	32760	32637	
375	0	32740	32498	
376	0	32674	32519	
377	0	32696	32636	
378	0	32636	32586	
379	0	32756	33015	
380	0	32788	33356	
381	0	32733	33373	
382	0	32839	32992	
383	0	32876	33065	
384	0	32796	32941	
385	0	32816	32730	
386	0	32730	32602	
387	0	32587	32476	
388	0	32650	32670	
389	0	32630	33039	
390	0	32648	32864	
391	0	32760	32972	
392	0	32823	32720	
393	0	32801	32709	
394	0	32731	33038	
395	0	32668	32851	
396	0	32662	32824	
397	0	32622	32845	
398	0	32696	32660	
399	0	32816	32737	
400	0	32878	32363	
401	0	32844	32138	
402	0	32828	32614	
403	0	32820	32661	
404	0	32740	32767	
405	0	32768	32370	
406	0	32780	32677	
407	0	32731	33013	
408	0	32644	33074	
409	0	32632	33187	
410	0	32628	33089	
411	0	32680	32475	
412	0	32672	32713	
413	0	32588	32533	
414	0	32594	32484	
415	0	32665	32752	
416	0	32680	32527	
417	0	32732	32250	
418	0	32704	32851	
419	0	32736	32997	
420	0	32760	32681	
421	0	32796	33075	
422	0	32816	33613	
423	0	32852	33523	
424	0	32886	32989	
425	0	32844	32775	
426	0	32857	32800	
427	0	32795	32530	
428	0	32805	32035	
429	0	32836	32223	
430	0	32854	32245	
431	0	32784	31991	
432	0	32744	31923	
433	0	32774	32323	
434	0	32750	32485	
435	0	32656	32667	
436	0	33083	32959	
437	0	33125	32933	
438	0	33028	32668	
439	0	32760	33057	
440	0	32540	33183	
441	0	32439	33175	
442	0	32549	33110	
443	0	32580	32615	
444	0	32690	32767	
445	0	32624	32793	
446	0	32492	32866	
447	0	32489	32908	
448	0	32504	32835	
449	0	32520	32775	
450	0	32608	32599	
451	0	32558	32832	
452	0	32585	32994	
453	0	32737	32621	
454	0	32752	32495	
455	0	32712	32703	
456	0	32640	32698	
457	0	32729	32668	
458	0	32792	32623	
459	0	32820	32713	
460	0	32842	32623	
461	0	33013	32544	
462	0	33054	32276	
463	0	33164	32694	
464	0	33082	32829	
465	0	32954	32998	
466	0	32916	33317	
467	0	32848	33053	
468	0	32728	33243	
469	0	32592	32920	
470	0	32602	32706	
471	0	32552	32704	
472	0	32556	32470	
473	0	32652	32717	
474	0	32614	32572	
475	0	32568	32508	
476	0	32559	32817	
477	0	32554	32862	
478	0	32644	32796	
479	0	32752	32356	
480	0	32760	32535	
481	0	32736	32413	
482	0	32696	32577	
483	0	32704	32743	
484	0	32890	32647	
485	0	33392	33310	
486	0	33528	33708	
487	0	33172	33624	
488	0	32775	33494	
489	0	32524	32647	
490	0	32342	32515	
491	0	32328	32446	
492	0	32405	32425	
493	0	32436	32487	
494	0	32460	32474	
495	0	32526	32837	
496	0	32660	33249	
497	0	32640	33303	
498	0	32775	33513	
499	0	32840	33865	
500	0	32857	33152	
501	0	32801	32630	
502	0	32820	32768	
503	0	32796	32186	
504	0	32851	31990	
505	0	32796	32476	
506	0	32903	32773	
507	0	32994	32782	
508	0	32988	33272	
509	0	33032	32903	
510	0	33170	33110	
511	0	33058	32935	
512	0	33402	32813	
513	0	33432	33090	
514	0	33056	32913	
515	0	32553	32775	
516	0	32060	33314	
517	0	31858	33400	
518	0	31734	33388	
519	0	32220	33063	
520	0	32800	32840	
521	0	32897	32295	
522	0	32784	31933	
523	0	32684	32032	
524	0	32434	32519	
525	0	32344	33025	
526	0	32272	33014	
527	0	32340	32647	
528	0	32704	32913	
529	0	32948	33188	
530	0	32911	32797	
531	0	32884	32640	
532	0	32858	32621	
533	0	32794	32433	
534	0	32690	32330	
535	0	32584	32201	
536	0	32532	32290	
537	0	32752	32555	
538	0	32876	32351	
539	0	33074	32540	
540	0	33200	32583	
541	0	33130	32371	
542	0	33032	32249	
543	0	32990	32230	
544	0	33010	32421	
545	0	33264	32775	
546	0	33266	32857	
547	0	33069	33092	
548	0	32971	33392	
549	0	32640	32735	
550	0	32438	32452	
551	0	32324	32357	
552	0	32102	32350	
553	0	32569	32598	
554	0	33212	32416	
555	0	33157	32749	
556	0	32784	32562	
557	0	32244	32615	
558	0	31804	32943	
559	0	31744	32903	
560	0	32429	32277	
561	0	32970	32671	
562	0	32960	32335	
563	0	32748	32662	
564	0	32480	32678	
565	0	32356	32700	
566	0	32272	32788	
567	0	32121	32721	
568	0	32100	32821	
569	0	32262	32687	
570	0	32372	32005	
571	0	32569	32325	
572	0	33224	32931	
573	0	33584	33024	
574	0	33540	33103	
575	0	33784	32665	
576	0	33724	32515	
577	0	33373	32208	
578	0	32968	32026	
579	0	32632	32439	
580	0	32570	32690	
581	0	32538	32952	
582	0	32470	32726	
583	0	33284	32903	
584	0	34432	32933	
585	0	34536	32955	
586	0	33885	33017	
587	0	32856	33199	
588	0	31884	32660	
589	0	31130	32643	
590	0	30834	32570	
591	0	30741	32731	
592	0	30872	32669	
593	0	31306	32947	
594	0	31870	32903	
595	0	32480	32888	
596	0	32960	32510	
597	0	33170	32709	
598	0	33196	32153	
599	0	33188	32041	
600	0	33242	32228	
601	0	33224	32371	
602	0	33100	32730	
603	0	33098	32592	
604	0	33100	32784	
605	0	33184	32661	
606	0	33150	32839	
607	0	33160	33274	
608	0	33041	33554	
609	0	32990	33730	
610	0	32978	33725	
611	0	32976	33235	
612	0	32884	32921	
613	0	32746	32667	
614	0	32674	32103	
615	0	32696	32002	
616	0	32768	32151	
617	0	32746	31879	
618	0	32865	31816	
619	0	32908	32260	
620	0	32992	32453	
621	0	32957	32768	
622	0	32904	33048	
623	0	32852	32986	
624	0	32828	33549	
625	0	33032	33031	
626	0	32928	33130	
627	0	32708	33294	
628	0	32706	33231	
629	0	33076	33381	
630	0	33176	33973	
631	0	32929	33347	
632	0	32434	32142	
633	0	31924	31781	
634	0	31620	32064	
635	0	31604	32274	
636	0	31821	32553	
637	0	32032	32930	
638	0	32306	32647	
639	0	32810	32964	
640	0	32970	32685	
641	0	33157	32398	
642	0	33164	32448	
643	0	33348	32583	
644	0	33344	32683	
645	0	33160	32711	
646	0	32848	33115	
647	0	32752	32696	
648	0	33240	32763	
649	0	34260	32683	
650	0	34341	32531	
651	0	34528	32807	
652	0	34268	32626	
653	0	33440	32551	
654	0	32352	32615	
655	0	31352	32579	
656	0	30702	32589	
657	0	30452	32628	
658	0	30632	32604	
659	0	30921	32569	
660	0	31456	32636	
661	0	31816	32498	
662	0	32292	32903	
663	0	32580	32755	
664	0	32784	32656	
665	0	32770	32704	
666	0	32921	32895	
667	0	33216	33143	
668	0	33158	33125	
669	0	32980	33026	
670	0	32832	32758	
671	0	32746	33203	
672	0	32562	32932	
673	0	32424	32816	
674	0	32554	32670	
675	0	32808	32466	
676	0	33604	32257	
677	0	34298	32231	
678	0	34192	32453	
679	0	34368	32205	
680	0	34190	32303	
681	0	33574	32407	
682	0	32774	32592	
683	0	31972	32876	
684	0	31436	32679	
685	0	31308	32909	
686	0	31616	32862	
687	0	32128	32817	
688	0	32512	33180	
689	0	32841	32871	
690	0	33026	32603	
691	0	33101	32937	
692	0	33024	33104	
693	0	32998	33152	
694	0	32946	32950	
695	0	32728	32679	
696	0	32617	32773	
697	0	32612	33095	
698	0	32976	32466	
699	0	33640	32274	
700	0	33506	32471	
701	0	33144	32254	
702	0	32920	32551	
703	0	32642	32555	
704	0	32434	32746	
705	0	32328	33031	
706	0	32322	32804	
707	0	32232	32834	
708	0	32281	32914	
709	0	32390	32677	
710	0	32522	32928	
711	0	33074	32689	
712	0	33781	32903	
713	0	33840	32479	
714	0	33866	32592	
715	0	33968	32584	
716	0	33634	32578	
717	0	33140	33223	
718	0	32589	32590	
719	0	31980	32612	
720	0	31520	32565	
721	0	31534	32367	
722	0	31709	32764	
723	0	31796	32667	
724	0	31957	32524	
725	0	32060	32535	
726	0	32000	32529	
727	0	32116	32623	
728	0	32396	32753	
729	0	32636	33179	
730	0	33324	32978	
731	0	33776	32862	
732	0	33626	32791	
733	0	33124	33054	
734	0	32858	32789	
735	0	32482	32578	
736	0	32178	32463	
737	0	31872	32504	
738	0	31749	32685	
739	0	31740	32862	
740	0	31944	33014	
741	0	32194	33340	
742	0	32429	33071	
743	0	32673	32716	
744	0	32946	32663	
745	0	33776	32566	
746	0	34209	32371	
747	0	34182	32091	
748	0	33716	32244	
749	0	33257	32351	
750	0	33040	32485	
751	0	33552	33036	
752	0	33512	33388	
753	0	33326	32658	
754	0	32872	32581	
755	0	32440	32831	
756	0	32160	32726	
757	0	32080	32742	
758	0	32348	32652	
759	0	33668	32767	
760	0	34786	32775	
761	0	34314	33152	
762	0	33253	32931	
763	0	31848	32954	
764	0	30685	32910	
765	0	30194	32628	
766	0	30320	32373	
767	0	30932	32105	
768	0	31632	32432	
769	0	32317	32816	
770	0	33193	33000	
771	0	34000	33430	
772	0	34076	33206	
773	0	33744	32885	
774	0	33156	32426	
775	0	32621	32432	
776	0	32312	32598	
777	0	32228	32836	
778	0	32402	32506	
779	0	32976	32603	
780	0	33584	32847	
781	0	33776	32975	
782	0	33712	32869	
783	0	33568	32504	
784	0	33132	32540	
785	0	33066	32562	
786	0	33040	32623	
787	0	33360	32758	
788	0	33204	32801	
789	0	32840	32693	
790	0	32386	32888	
791	0	31922	32898	
792	0	31504	32979	
793	0	31564	33085	
794	0	32168	32740	
795	0	33474	32764	
796	0	34858	32775	
797	0	34656	32383	
798	0	33608	32556	
799	0	32562	32491	
800	0	31968	32281	
801	0	32396	32606	
802	0	32280	32653	
803	0	31996	32971	
804	0	31756	32975	
805	0	31536	32730	
806	0	31488	32884	
807	0	31220	32707	
808	0	31270	32744	
809	0	31392	32894	
810	0	31596	32799	
811	0	31989	32786	
812	0	32180	33147	
813	0	32642	33251	
814	0	33016	32728	
815	0	33352	32637	
816	0	34010	32245	
817	0	34284	32204	
818	0	34046	32336	
819	0	33486	31319	
820	0	32952	31670	
821	0	32481	32248	
822	0	32242	32793	
823	0	32466	33401	
824	0	32754	33811	
825	0	32908	33963	
826	0	33248	33844	
827	0	33526	33169	
828	0	33881	32917	
829	0	33658	32313	
830	0	33172	32454	
831	0	32724	32476	
832	0	32394	32938	
833	0	32324	32610	
834	0	32248	32342	
835	0	32260	32130	
836	0	32344	32242	
837	0	32712	33055	
838	0	33706	32974	
839	0	34016	33231	
840	0	34346	32984	
841	0	33772	32839	
842	0	32801	32726	
843	0	31892	32616	
844	0	31536	32704	
845	0	31852	32738	
846	0	32394	32583	
847	0	32786	32553	
848	0	32832	32689	
849	0	32658	32876	
850	0	32524	32843	
851	0	32324	32696	
852	0	32061	32711	
853	0	31920	32428	
854	0	31984	32374	
855	0	32180	32500	
856	0	32484	32315	
857	0	32646	32429	
858	0	32888	32823	
859	0	33024	32991	
860	0	33116	32924	
861	0	33174	32762	
862	0	33210	32681	
863	0	33010	32431	
864	0	32982	32390	
865	0	33026	32946	
866	0	32968	32975	
867	0	34121	33088	
868	0	35064	33227	
869	0	34653	33149	
870	0	33920	32950	
871	0	33240	32302	
872	0	32505	32237	
873	0	31897	32590	
874	0	31512	32625	
875	0	31265	33188	
876	0	31224	33107	
877	0	31344	33263	
878	0	31338	32811	
879	0	31556	32335	
880	0	31972	32031	
881	0	32272	32586	
882	0	32780	32761	
883	0	33816	32564	
884	0	34296	32866	
885	0	34032	32831	
886	0	33280	32903	
887	0	33056	32878	
888	0	32775	32845	
889	0	32533	32751	
890	0	32600	32589	
891	0	32800	32742	
892	0	32632	32530	
893	0	32416	32252	
894	0	32340	32512	
895	0	32223	33188	
896	0	32048	32860	
897	0	31924	32583	
898	0	32524	32495	
899	0	32992	32545	
900	0	33048	32637	
901	0	32780	32791	
902	0	32588	32800	
903	0	32450	32775	
904	0	32500	32606	
905	0	32562	32638	
906	0	32690	32995	
907	0	33072	32957	
908	0	33158	33279	
909	0	33193	33076	
910	0	33129	32707	
911	0	33052	32567	
912	0	33100	32522	
913	0	33048	32519	
914	0	33356	32572	
915	0	33513	32450	
916	0	33476	32540	
917	0	33564	32305	
918	0	33490	32258	
919	0	33108	32596	
920	0	32736	32808	
921	0	32252	32637	
922	0	31844	32698	
923	0	31620	32735	
924	0	31770	33104	
925	0	31947	33059	
926	0	32088	32805	
927	0	32220	32685	
928	0	32288	32946	
929	0	32380	32926	
930	0	32552	32882	
931	0	32775	32639	
932	0	32720	32604	
933	0	32682	32717	
934	0	32636	32576	
935	0	32764	32419	
936	0	32864	32477	
937	0	32872	32456	
938	0	32864	32342	
939	0	32896	32521	
940	0	33544	32634	
941	0	34084	32842	
942	0	33760	33256	
943	0	33464	33351	
944	0	33099	33076	
945	0	32562	32989	
946	0	32252	33098	
947	0	32200	32852	
948	0	32248	32684	
949	0	32362	32569	
950	0	32408	32383	
951	0	32366	32551	
952	0	32744	32671	
953	0	32968	32306	
954	0	33088	32406	
955	0	33040	32579	
956	0	33049	32719	
957	0	32904	32749	
958	0	32734	32689	
959	0	32740	32297	
960	0	32888	32300	
961	0	32872	32720	
962	0	32842	32903	
963	0	32846	32903	
964	0	32988	32921	
965	0	33634	32615	
966	0	33448	32730	
967	0	32798	33115	
968	0	32492	32947	
969	0	32064	32838	
970	0	31781	33044	
971	0	31740	33120	
972	0	31654	33043	
973	0	31689	33166	
974	0	31972	33258	
975	0	32376	32573	
976	0	32792	32038	
977	0	33130	32078	
978	0	33312	31773	
979	0	33304	32174	
980	0	33212	32401	
981	0	33581	32388	
982	0	34192	32742	
983	0	34252	33031	
984	0	33368	32812	
985	0	32448	32760	
986	0	31819	33147	
987	0	31403	33200	
988	0	31232	33257	
989	0	31400	33367	
990	0	31740	33029	
991	0	32016	32690	
992	0	32362	32685	
993	0	32780	32510	
994	0	33152	32363	
995	0	33314	32238	
996	0	33448	32084	
997	0	33499	32535	
998	0	33402	32422	
999	0	33122	32422	
1000	0	32968	32612	
1001	0	32796	32455	
1002	0	32774	32500	
1003	0	32834	32907	
1004	0	32936	32919	
1005	0	32936	33220	
1006	0	32874	33298	
1007	0	32786	33010	
1008	0	32652	33174	
1009	0	32612	33157	
1010	0	32628	32883	
1011	0	32632	32775	
1012	0	32712	32728	
1013	0	32740	32544	
1014	0	32714	32462	
1015	0	32686	32494	
1016	0	32674	32606	
1017	0	32642	32329	
1018	0	32704	32536	
1019	0	32772	32739	
1020	0	32944	32671	
1021	0	33010	32546	
1022	0	33030	32561	
1023	0	32962	32775	
1024	0	33060	32795	
1025	0	34102	32753	
1026	0	34834	33222	
1027	0	34694	33138	
1028	0	33744	32805	
1029	0	32662	32847	
1030	0	31616	32930	
1031	0	30976	32923	
1032	0	30784	32813	
1033	0	30920	33154	
1034	0	31525	33096	
1035	0	32534	32998	
1036	0	33108	32873	
1037	0	33292	32590	
1038	0	33088	31908	
1039	0	32604	31663	
1040	0	32200	31574	
1041	0	31877	31697	
1042	0	31644	32167	
1043	0	31868	32854	
1044	0	31901	32966	
1045	0	32144	33128	
1046	0	32502	33496	
1047	0	32706	33095	
1048	0	32820	32693	
1049	0	32892	32559	
1050	0	32966	33196	
1051	0	33122	33175	
1052	0	33144	32806	
1053	0	33282	33051	
1054	0	33257	32765	
1055	0	33140	33090	
1056	0	33084	33375	
1057	0	32976	32637	
1058	0	32840	32466	
1059	0	32838	32246	
1060	0	32912	32872	
1061	0	32948	33012	
1062	0	32895	33253	
1063	0	32948	32887	
1064	0	32994	32814	
1065	0	32938	32789	
1066	0	32992	32309	
1067	0	32852	32477	
1068	0	32754	32709	
1069	0	32813	32731	
1070	0	32868	32699	
1071	0	32860	32511	
1072	0	32847	32775	
1073	0	32809	32752	
1074	0	32728	32386	
1075	0	32752	32672	
1076	0	32708	32532	
1077	0	32752	32287	
1078	0	32712	32246	
1079	0	32690	32404	
1080	0	32720	32457	
1081	0	32775	32747	
1082	0	32774	33158	
1083	0	32697	33061	
1084	0	32723	33087	
1085	0	32833	33047	
1086	0	32878	32984	
1087	0	32812	32773	
1088	0	32814	32774	
1089	0	33192	33214	
1090	0	33332	33346	
1091	0	32974	33053	
1092	0	32544	32866	
1093	0	32252	32412	
1094	0	32160	31983	
1095	0	32100	32228	
1096	0	32251	32834	
1097	0	32672	32715	
1098	0	32825	32327	
1099	0	32978	32032	
1100	0	32902	32227	
1101	0	32718	32613	
1102	0	32628	32738	
1103	0	32664	32454	
1104	0	32682	32635	
1105	0	32696	32687	
1106	0	32706	32886	
1107	0	33321	33227	
1108	0	33660	33048	
1109	0	33690	33345	
1110	0	33712	33864	
1111	0	33208	33842	
1112	0	32496	34354	
1113	0	32044	33722	
1114	0	31692	32272	
1115	0	31510	31959	
1116	0	31424	32257	
1117	0	31480	32178	
1118	0	31725	32147	
1119	0	32124	32341	
1120	0	32920	32198	
1121	0	33716	31968	
1122	0	33674	32449	
1123	0	33222	32438	
1124	0	32684	32954	
1125	0	32168	33159	
1126	0	32130	33142	
1127	0	32193	32868	
1128	0	32460	32988	
1129	0	32634	33028	
1130	0	32813	32908	
1131	0	32975	32582	
1132	0	33033	32595	
1133	0	33085	32415	
1134	0	33074	32391	
1135	0	33004	32431	
1136	0	32984	32623	
1137	0	32925	32748	
1138	0	32840	32675	
1139	0	32854	32914	
1140	0	32856	32968	
1141	0	32964	32874	
1142	0	32980	32800	
1143	0	32901	32857	
1144	0	32992	32965	
1145	0	32948	32878	
1146	0	32996	32901	
1147	0	32916	32616	
1148	0	32876	32701	
1149	0	32905	32555	
1150	0	32944	32416	
1151	0	32934	32850	
1152	0	32803	32799	
1153	0	32722	32694	
1154	0	32866	33088	
1155	0	32886	33044	
1156	0	33058	32732	
1157	0	33632	32924	
1158	0	33474	33031	
1159	0	32882	32760	
1160	0	32281	32576	
1161	0	31769	32080	
1162	0	31448	31691	
1163	0	31548	32342	
1164	0	31940	32722	
1165	0	32360	32631	
1166	0	32680	33020	
1167	0	32842	32966	
1168	0	32810	32686	
1169	0	32864	32519	
1170	0	33024	31835	
1171	0	32928	31921	
1172	0	32832	32609	
1173	0	32640	33079	
1174	0	32662	33348	
1175	0	32632	33392	
1176	0	32782	33286	
1177	0	32796	33255	
1178	0	32942	33814	
1179	0	33229	33085	
1180	0	33364	32477	
1181	0	33248	32323	
1182	0	33102	31987	
1183	0	32860	32184	
1184	0	33366	32678	
1185	0	33416	32480	
1186	0	33032	32679	
1187	0	32541	32399	
1188	0	32052	32687	
1189	0	31893	32950	
1190	0	31824	33024	
1191	0	32036	33415	
1192	0	32263	33065	
1193	0	32414	32899	
1194	0	32512	32609	
1195	0	32500	32214	
1196	0	32730	31847	
1197	0	32796	32263	
1198	0	32660	31773	
1199	0	32594	31877	
1200	0	32504	32628	
1201	0	32656	33111	
1202	0	32848	33438	
1203	0	33105	33758	
1204	0	33412	34052	
1205	0	34058	34150	
1206	0	34952	33565	
1207	0	34237	32950	
1208	0	33192	32850	
1209	0	32160	32714	
1210	0	31602	32252	
1211	0	31192	31935	
1212	0	31188	32193	
1213	0	31581	31785	
1214	0	32070	31967	
1215	0	32546	32524	
1216	0	32984	32112	
1217	0	33064	32253	
1218	0	33122	32718	
1219	0	33106	32772	
1220	0	32872	33255	
1221	0	32630	33328	
1222	0	32590	33279	
1223	0	32496	32943	
1224	0	32484	32354	
1225	0	32580	32775	
1226	0	32606	32666	
1227	0	32728	32566	
1228	0	32740	32903	
1229	0	32872	32962	
1230	0	32806	32906	
1231	0	32776	32647	
1232	0	32720	33134	
1233	0	32646	34384	
1234	0	32748	34145	
1235	0	33100	33527	
1236	0	33120	31919	
1237	0	33274	31282	
1238	0	34140	30909	
1239	0	33956	31266	
1240	0	33360	31751	
1241	0	32662	31987	
1242	0	32288	32386	
1243	0	32420	32894	
1244	0	32376	33567	
1245	0	32242	33679	
1246	0	32008	33645	
1247	0	31800	33791	
1248	0	31696	33769	
1249	0	31888	32800	
1250	0	32256	32039	
1251	0	32596	31714	
1252	0	32728	32097	
1253	0	32960	31905	
1254	0	33077	32327	
1255	0	33144	32496	
1256	0	33200	33241	
1257	0	33276	33010	
1258	0	33340	32791	
1259	0	33292	32717	
1260	0	33232	33105	
1261	0	33080	32380	
1262	0	32968	32566	
1263	0	32760	32546	
1264	0	32706	32799	
1265	0	32832	33283	
1266	0	33026	33712	
1267	0	32850	34439	
1268	0	32698	34459	
1269	0	33238	34227	
1270	0	33106	33229	
1271	0	32728	32562	
1272	0	32332	32120	
1273	0	32146	32108	
1274	0	31944	31979	
1275	0	32000	32239	
1276	0	32128	32473	
1277	0	32122	32489	
1278	0	32194	32339	
1279	0	32398	32172	
1280	0	33264	31992	
1281	0	34088	32549	
1282	0	33768	32585	
1283	0	33098	32737	
1284	0	32496	32800	
1285	0	31896	32964	
1286	0	31872	32876	
1287	0	32212	32957	
1288	0	33020	32718	
1289	0	33232	32459	
1290	0	33232	33191	
1291	0	33026	33140	
1292	0	32868	32631	
1293	0	33429	31804	
1294	0	33872	31806	
1295	0	33988	31623	
1296	0	33658	31123	
1297	0	32976	32368	
1298	0	32259	32833	
1299	0	31680	33317	
1300	0	31312	33870	
1301	0	31164	34587	
1302	0	31466	34675	
1303	0	31794	33773	
1304	0	31922	33653	
1305	0	32104	33131	
1306	0	32272	32390	
1307	0	32537	32279	
1308	0	32788	32246	
1309	0	32846	32476	
1310	0	32944	32276	
1311	0	33088	31828	
1312	0	32996	32219	
1313	0	32933	32079	
1314	0	32894	32509	
1315	0	32988	31592	
1316	0	33026	31192	
1317	0	33036	31751	
1318	0	32966	33399	
1319	0	33016	34050	
1320	0	32944	35255	
1321	0	32912	35256	
1322	0	32881	34648	
1323	0	32767	33799	
1324	0	32768	32553	
1325	0	32824	30918	
1326	0	32909	30994	
1327	0	32964	30854	
1328	0	32970	31233	
1329	0	33056	32015	
1330	0	33024	31604	
1331	0	33024	32105	
1332	0	32933	33699	
1333	0	32891	34740	
1334	0	32904	34292	
1335	0	32996	34502	
1336	0	33100	34017	
1337	0	33600	33336	
1338	0	34002	31376	
1339	0	33569	30921	
1340	0	33448	31489	
1341	0	33132	31882	
1342	0	32480	32700	
1343	0	31770	32848	
1344	0	31523	33955	
1345	0	32320	34373	
1346	0	32548	33192	
1347	0	32289	32262	
1348	0	32399	32040	
1349	0	32854	32007	
1350	0	32775	31748	
1351	0	32998	31011	
1352	0	33269	31399	
1353	0	32906	32722	
1354	0	32114	33454	
1355	0	31542	34023	
1356	0	31232	34311	
1357	0	31304	33334	
1358	0	31696	31519	
1359	0	32060	30880	
1360	0	32546	32102	
1361	0	32844	33063	
1362	0	32888	32547	
1363	0	32771	32515	
1364	0	32828	33638	
1365	0	32778	35384	
1366	0	32890	35003	
1367	0	32932	33918	
1368	0	33344	33181	
1369	0	33688	33626	
1370	0	33952	33223	
1371	0	33650	31664	
1372	0	33162	30656	
1373	0	32812	30460	
1374	0	32812	30991	
1375	0	32646	31793	
1376	0	32480	32248	
1377	0	32600	32355	
1378	0	32382	32771	
1379	0	32164	33280	
1380	0	31976	33178	
1381	0	32036	32916	
1382	0	32142	32512	
1383	0	32224	32103	
1384	0	32308	32714	
1385	0	32617	33839	
1386	0	33024	34415	
1387	0	33116	35188	
1388	0	33062	33610	
1389	0	33265	32001	
1390	0	33104	31020	
1391	0	32857	33135	
1392	0	32628	33899	
1393	0	32430	32718	
1394	0	32412	31430	
1395	0	32496	31037	
1396	0	32868	31496	
1397	0	33160	32169	
1398	0	33408	33967	
1399	0	33317	35062	
1400	0	33737	33222	
1401	0	33736	32162	
1402	0	33760	32080	
1403	0	33568	31901	
1404	0	33044	30888	
1405	0	32466	30795	
1406	0	31848	32836	
1407	0	31552	33840	
1408	0	31588	35606	
1409	0	32118	36022	
1410	0	32632	35134	
1411	0	32836	33456	
1412	0	32938	31430	
1413	0	33556	30599	
1414	0	34244	31814	
1415	0	33926	29733	
1416	0	33184	27563	
1417	0	32440	28925	
1418	0	33032	31460	
1419	0	33741	34944	
1420	0	32976	36359	
1421	0	31700	33531	
1422	0	30756	32573	
1423	0	30600	32775	
1424	0	30868	33953	
1425	0	30898	35108	
1426	0	31264	34459	
1427	0	31962	34120	
1428	0	32164	34871	
1429	0	32413	32325	
1430	0	32651	30752	
1431	0	33038	31050	
1432	0	33220	32151	
1433	0	33492	32069	
1434	0	33938	31860	
1435	0	34194	32466	
1436	0	34122	33017	
1437	0	34117	33658	
1438	0	33832	33925	
1439	0	33476	34280	
1440	0	33149	34698	
1441	0	32826	33970	
1442	0	32537	33398	
1443	0	32136	32196	
1444	0	31796	31388	
1445	0	31648	30586	
1446	0	31738	30186	
1447	0	32104	30566	
1448	0	32476	31939	
1449	0	32600	32322	
1450	0	32768	32446	
1451	0	33013	31805	
1452	0	33266	32448	
1453	0	33308	34140	
1454	0	33384	36742	
1455	0	33192	37238	
1456	0	32836	35755	
1457	0	32650	33378	
1458	0	32504	31751	
1459	0	32292	31434	
1460	0	32281	30888	
1461	0	32620	29774	
1462	0	33336	28660	
1463	0	33620	29378	
1464	0	33632	30042	
1465	0	33482	31988	
1466	0	33196	33837	
1467	0	32900	34205	
1468	0	32376	34474	
1469	0	31948	35376	
1470	0	31648	34967	
1471	0	31580	33918	
1472	0	32008	32642	
1473	0	32464	34127	
1474	0	32715	33434	
1475	0	32771	33073	
1476	0	32862	33151	
1477	0	32854	31348	
1478	0	33134	31891	
1479	0	33433	32176	
1480	0	33664	31716	
1481	0	33862	31300	
1482	0	33680	31965	
1483	0	33410	33325	
1484	0	33024	34162	
1485	0	32928	35296	
1486	0	32526	35809	
1487	0	32024	33304	
1488	0	31836	30308	
1489	0	31801	30483	
1490	0	31620	31340	
1491	0	31776	32166	
1492	0	32645	31979	
1493	0	32912	31200	
1494	0	33121	31438	
1495	0	32896	32466	
1496	0	32576	33778	
1497	0	32293	33069	
1498	0	32032	32955	
1499	0	31808	31911	
1500	0	31756	32511	
1501	0	31928	32503	
1502	0	32328	32573	
1503	0	32894	33126	
1504	0	33378	33726	
1505	0	33612	33079	
1506	0	33072	33104	
1507	0	32962	34656	
1508	0	33698	36743	
1509	0	33984	35280	
1510	0	33492	31968	
1511	0	33194	28644	
1512	0	32992	27328	
1513	0	32596	29720	
1514	0	32224	33287	
1515	0	31660	34336	
1516	0	31384	33991	
1517	0	31490	34714	
1518	0	32040	35658	
1519	0	32416	35620	
1520	0	32716	35071	
1521	0	32874	32860	
1522	0	33330	30670	
1523	0	33914	29126	
1524	0	34168	29903	
1525	0	34331	31259	
1526	0	34104	32507	
1527	0	33553	33572	
1528	0	33016	35434	
1529	0	32545	36452	
1530	0	32228	35867	
1531	0	31936	33607	
1532	0	31741	31168	
1533	0	31820	30184	
1534	0	32008	30215	
1535	0	31944	29656	
1536	0	32064	29489	
1537	0	32233	30823	
1538	0	32528	32386	
1539	0	32848	33330	
1540	0	33232	34823	
1541	0	33486	35182	
1542	0	33529	33476	
1543	0	33440	32718	
1544	0	33230	33991	
1545	0	33096	34517	
1546	0	32738	33832	
1547	0	32356	32306	
1548	0	32202	32057	
1549	0	32310	32168	
1550	0	32609	31212	
1551	0	32792	31627	
1552	0	32965	32243	
1553	0	33422	32885	
1554	0	33704	33220	
1555	0	33520	32789	
1556	0	33208	32715	
1557	0	32864	32098	
1558	0	32537	31442	
1559	0	32386	31518	
1560	0	32378	32946	
1561	0	32234	33844	
1562	0	32189	34876	
1563	0	32234	34155	
1564	0	32304	33871	
1565	0	32336	33181	
1566	0	32386	32959	
1567	0	32346	32236	
1568	0	32428	31823	
1569	0	32404	31429	
1570	0	32644	31847	
1571	0	32900	32012	
1572	0	33057	34616	
1573	0	33100	34932	
1574	0	33106	33205	
1575	0	33156	32753	
1576	0	33088	32606	
1577	0	33068	30882	
1578	0	33062	30085	
1579	0	32717	31378	
1580	0	32470	33016	
1581	0	32428	33287	
1582	0	32605	32653	
1583	0	32604	34021	
1584	0	32970	34534	
1585	0	33680	34031	
1586	0	34207	33488	
1587	0	34390	31848	
1588	0	34243	30348	
1589	0	33872	30446	
1590	0	33286	32402	
1591	0	32481	33714	
1592	0	31572	35001	
1593	0	30934	35220	
1594	0	30434	32428	
1595	0	30369	31903	
1596	0	30424	31043	
1597	0	30456	31496	
1598	0	31258	32329	
1599	0	32892	32323	
1600	0	33770	31866	
1601	0	34184	32564	
1602	0	34266	32765	
1603	0	34136	33602	
1604	0	33956	33312	
1605	0	33454	33591	
1606	0	33127	34015	
1607	0	32793	33456	
1608	0	32604	33312	
1609	0	32528	32964	
1610	0	32336	32813	
1611	0	31844	32022	
1612	0	31436	31819	
1613	0	31962	31898	
1614	0	32754	32262	
1615	0	33248	31831	
1616	0	33340	31630	
1617	0	33465	32220	
1618	0	33308	32788	
1619	0	33085	33426	
1620	0	32924	34009	
1621	0	33096	33767	
1622	0	33262	33619	
1623	0	33512	33467	
1624	0	33626	32850	
1625	0	33692	32322	
1626	0	33450	33398	
1627	0	32992	32701	
1628	0	32709	32998	
1629	0	32288	34814	
1630	0	31977	35140	
1631	0	31956	32748	
1632	0	32178	28880	
1633	0	32484	29820	
1634	0	32650	30467	
1635	0	32580	30661	
1636	0	32580	30708	
1637	0	32540	31366	
1638	0	32845	33345	
1639	0	32740	32799	
1640	0	32682	33335	
1641	0	32571	34811	
1642	0	32362	35634	
1643	0	32356	35803	
1644	0	32417	34744	
1645	0	32568	33125	
1646	0	32664	32115	
1647	0	33000	31397	
1648	0	33464	31297	
1649	0	33496	30535	
1650	0	33152	32026	
1651	0	32790	33287	
1652	0	32674	34102	
1653	0	32774	34541	
1654	0	32584	33509	
1655	0	32682	32309	
1656	0	32988	32095	
1657	0	33102	31680	
1658	0	33112	32010	
1659	0	32880	32175	
1660	0	32476	32283	
1661	0	32260	32486	
1662	0	32056	33140	
1663	0	31824	33671	
1664	0	31958	34237	
1665	0	32040	33915	
1666	0	32288	33136	
1667	0	32044	32339	
1668	0	31768	31296	
1669	0	32152	30522	
1670	0	32840	29608	
1671	0	33182	31048	
1672	0	33377	33946	
1673	0	33424	34034	
1674	0	33299	35122	
1675	0	33320	35017	
1676	0	33268	34156	
1677	0	33282	33688	
1678	0	33461	31949	
1679	0	33684	30446	
1680	0	33688	30342	
1681	0	33701	30923	
1682	0	33640	32690	
1683	0	33336	33328	
1684	0	32850	34291	
1685	0	32484	33602	
1686	0	32348	33140	
1687	0	32210	33755	
1688	0	32065	32359	
1689	0	31846	31138	
1690	0	31328	31340	
1691	0	31460	32338	
1692	0	32014	33156	
1693	0	32342	34439	
1694	0	32698	34337	
1695	0	33212	33660	
1696	0	33620	33951	
1697	0	33600	31451	
1698	0	33528	29797	
1699	0	33460	30632	
1700	0	33148	32164	
1701	0	32800	33240	
1702	0	32416	32852	
1703	0	32224	33050	
1704	0	32448	32967	
1705	0	32780	33790	
1706	0	33196	36386	
1707	0	33536	36452	
1708	0	33512	35219	
1709	0	33548	32560	
1710	0	33444	29878	
1711	0	33094	29170	
1712	0	32722	29077	
1713	0	32270	29852	
1714	0	31928	33810	
1715	0	31522	35783	
1716	0	31480	35115	
1717	0	31810	32772	
1718	0	32208	32248	
1719	0	32400	33271	
1720	0	32306	33547	
1721	0	32462	33520	
1722	0	32548	32594	
1723	0	32492	31797	
1724	0	32660	31079	
1725	0	32724	29850	
1726	0	32632	30629	
1727	0	32608	32521	
1728	0	32670	33980	
1729	0	32674	33504	
1730	0	32864	33517	
1731	0	32948	33771	
1732	0	32960	33211	
1733	0	32976	32840	
1734	0	33080	32647	
1735	0	33152	32356	
1736	0	33156	32198	
1737	0	33092	32953	
1738	0	33116	33855	
1739	0	33350	33709	
1740	0	33432	33590	
1741	0	33464	33189	
1742	0	33216	32898	
1743	0	32938	31472	
1744	0	32796	30638	
1745	0	32696	31101	
1746	0	32652	32323	
1747	0	32461	32590	
1748	0	32380	33353	
1749	0	32294	34382	
1750	0	32262	34688	
1751	0	32170	34759	
1752	0	32208	32646	
1753	0	32292	30645	
1754	0	32544	29559	
1755	0	32817	30395	
1756	0	32968	31879	
1757	0	32944	31893	
1758	0	33264	31939	
1759	0	33400	33648	
1760	0	33347	34019	
1761	0	33300	34635	
1762	0	33548	35012	
1763	0	33652	34215	
1764	0	33376	33860	
1765	0	33062	32859	
1766	0	32668	31322	
1767	0	32240	31212	
1768	0	31905	31455	
1769	0	31844	32870	
1770	0	31842	33844	
1771	0	31820	33421	
1772	0	31744	33714	
1773	0	31904	34230	
1774	0	31880	33366	
1775	0	31721	30902	
1776	0	32000	28992	
1777	0	32552	29266	
1778	0	33184	31143	
1779	0	33524	32500	
1780	0	33569	33367	
1781	0	33484	34029	
1782	0	33390	33429	
1783	0	33196	33094	
1784	0	33055	33320	
1785	0	32830	33799	
1786	0	32797	34136	
1787	0	32932	34255	
1788	0	32836	34277	
1789	0	32620	31734	
1790	0	32532	31396	
1791	0	32380	33749	
1792	0	32342	34823	
1793	0	32578	34754	
1794	0	32594	34349	
1795	0	32858	33280	
1796	0	33074	31282	
1797	0	33344	30497	
1798	0	33382	30983	
1799	0	33373	31409	
1800	0	33646	33006	
1801	0	33962	32409	
1802	0	34136	31630	
1803	0	34010	31881	
1804	0	33834	32786	
1805	0	33114	31975	
1806	0	32322	31354	
1807	0	31378	33102	
1808	0	30946	34321	
1809	0	31052	32803	
1810	0	31560	32519	
1811	0	31898	31174	
1812	0	32188	30200	
1813	0	32201	31364	
1814	0	32276	33174	
1815	0	32130	34466	
1816	0	31756	35186	
1817	0	31448	34626	
1818	0	31580	34795	
1819	0	32086	33562	
1820	0	32528	32548	
1821	0	32696	32029	
1822	0	32992	32559	
1823	0	33266	32894	
1824	0	33416	32823	
1825	0	33542	32927	
1826	0	33683	32793	
1827	0	33680	32007	
1828	0	33636	31618	
1829	0	33666	31366	
1830	0	33420	31782	
1831	0	33240	33656	
1832	0	32960	33365	
1833	0	32832	32199	
1834	0	32868	32570	
1835	0	32988	33090	
1836	0	32943	33152	
1837	0	32852	32317	
1838	0	32778	32473	
1839	0	32652	32755	
1840	0	32623	32932	
1841	0	32477	33076	
1842	0	32697	33142	
1843	0	32706	33341	
1844	0	32888	33499	
1845	0	33085	33119	
1846	0	33381	32532	
1847	0	33186	32646	
1848	0	33016	32593	
1849	0	32916	32208	
1850	0	32616	32839	
1851	0	32694	33206	
1852	0	32756	33441	
1853	0	32520	34091	
1854	0	32418	33748	
1855	0	32597	33116	
1856	0	32560	32236	
1857	0	32656	31393	
1858	0	32736	30855	
1859	0	32556	30833	
1860	0	32532	31907	
1861	0	32498	32947	
1862	0	32300	32696	
1863	0	32416	32933	
1864	0	32584	33314	
1865	0	32516	33070	
1866	0	32584	32402	
1867	0	32608	31503	
1868	0	32668	32345	
1869	0	32456	31725	
1870	0	32453	32628	
1871	0	32488	33789	
1872	0	32571	35052	
1873	0	32844	34481	
1874	0	32848	34744	
1875	0	32660	34390	
1876	0	32570	33927	
1877	0	32634	31729	
1878	0	32592	30456	
1879	0	32729	29560	
1880	0	32602	29362	
1881	0	32428	30436	
1882	0	32396	32560	
1883	0	32500	35312	
1884	0	32592	35975	
1885	0	33000	33997	
1886	0	33388	32630	
1887	0	33376	31082	
1888	0	33297	29778	
1889	0	33130	31363	
1890	0	32938	32260	
1891	0	32635	32804	
1892	0	32594	34240	
1893	0	32498	34550	
1894	0	32180	33759	
1895	0	32081	33515	
1896	0	32472	32775	
1897	0	32817	32156	
1898	0	32989	32081	
1899	0	33104	32458	
1900	0	33364	32734	
1901	0	33385	32967	
1902	0	33228	33265	
1903	0	33092	33060	
1904	0	32852	31992	
1905	0	32696	31221	
1906	0	32454	31623	
1907	0	32378	33360	
1908	0	32362	34471	
1909	0	32274	35064	
1910	0	32477	35312	
1911	0	32748	34542	
1912	0	32802	33004	
1913	0	32745	31407	
1914	0	32872	30818	
1915	0	32956	31346	
1916	0	32967	32073	
1917	0	32984	32310	
1918	0	33082	32093	
1919	0	33376	32061	
1920	0	33862	32237	
1921	0	33974	32004	
1922	0	34074	32575	
1923	0	33976	32462	
1924	0	33816	32647	
1925	0	33296	32790	
1926	0	32656	32455	
1927	0	32312	32885	
1928	0	31968	35235	
1929	0	31762	36486	
1930	0	31453	34984	
1931	0	31325	32588	
1932	0	31218	30740	
1933	0	31108	30748	
1934	0	31218	30309	
1935	0	31617	29932	
1936	0	31938	30948	
1937	0	31904	30670	
1938	0	31621	32250	
1939	0	31668	33688	
1940	0	32097	34902	
1941	0	32520	35330	
1942	0	33170	35392	
1943	0	33629	34939	
1944	0	33834	34272	
1945	0	33835	33049	
1946	0	33636	32431	
1947	0	33577	31194	
1948	0	33468	30328	
1949	0	33410	30993	
1950	0	33234	31999	
1951	0	33262	32809	
1952	0	33353	33067	
1953	0	33430	32359	
1954	0	33436	32511	
1955	0	33442	33099	
1956	0	33398	32730	
1957	0	33386	32541	
1958	0	33392	33612	
1959	0	33294	34910	
1960	0	33105	34493	
1961	0	33058	34159	
1962	0	32920	32813	
1963	0	32658	31642	
1964	0	32322	30622	
1965	0	32144	30164	
1966	0	32009	31165	
1967	0	31520	32708	
1968	0	31100	33186	
1969	0	30962	33090	
1970	0	31220	33472	
1971	0	31632	33229	
1972	0	31976	32826	
1973	0	32202	32114	
1974	0	32448	31676	
1975	0	32559	31480	
1976	0	32884	31131	
1977	0	33452	31906	
1978	0	33712	32688	
1979	0	33749	33587	
1980	0	33628	33974	
1981	0	33624	34719	
1982	0	33496	34789	
1983	0	33392	33886	
1984	0	33120	33679	
1985	0	32944	33311	
1986	0	32848	33207	
1987	0	32528	33264	
1988	0	32376	32035	
1989	0	32560	31494	
1990	0	32820	31750	
1991	0	33072	32466	
1992	0	33144	32800	
1993	0	33104	32894	
1994	0	32958	33272	
1995	0	32733	33436	
1996	0	32564	33444	
1997	0	32396	33223	
1998	0	32457	32418	
1999	0	32780	31858	
2000	0	32962	30902	
2001	0	33138	30514	
2002	0	33200	31172	
2003	0	33240	31873	
2004	0	33053	33198	
2005	0	32674	33595	
2006	0	32312	32848	
2007	0	31824	31666	
2008	0	31580	31631	
2009	0	31416	32682	
2010	0	31524	33636	
2011	0	31664	33453	
2012	0	31976	33110	
2013	0	31888	33072	
2014	0	32112	33095	
2015	0	32608	32899	
2016	0	32904	32982	
2017	0	33072	33055	
2018	0	33216	33250	
2019	0	33227	32611	
2020	0	33048	32439	
2021	0	33153	32545	
2022	0	33160	32840	
2023	0	33250	33122	
2024	0	33284	33449	
2025	0	33302	33451	
2026	0	33268	33951	
2027	0	33408	33750	
2028	0	33564	32901	
2029	0	33504	32422	
2030	0	33272	32201	
2031	0	33089	32075	
2032	0	32850	32026	
2033	0	32792	32469	
2034	0	32850	32287	
2035	0	32772	32340	
2036	0	32573	32634	
2037	0	32492	32184	
2038	0	32603	31724	
2039	0	32488	32058	
2040	0	32314	32399	
2041	0	32480	32523	
2042	0	32772	33031	
2043	0	32802	33135	
2044	0	32853	33281	
2045	0	32760	33588	
2046	0	32504	33422	
2047	0	32234	33471	
2048	0	31854	33432	
2049	0	31873	32920	
2050	0	31894	33094	
2051	0	32070	32768	
2052	0	32078	32225	
2053	0	32330	31907	
2054	0	32762	32351	
2055	0	33122	32217	
2056	0	33008	31988	
2057	0	32976	31955	
2058	0	32936	32148	
2059	0	32876	32775	
2060	0	32817	33338	
2061	0	32794	32887	
2062	0	32775	32604	
2063	0	32813	32341	
2064	0	32890	31777	
2065	0	33123	32076	
2066	0	33120	32427	
2067	0	33227	33182	
2068	0	33306	33839	
2069	0	33357	33750	
2070	0	33323	33961	
2071	0	33356	33548	
2072	0	33292	33278	
2073	0	33166	32846	
2074	0	33122	32580	
2075	0	33056	32390	
2076	0	32828	32322	
2077	0	32580	32202	
2078	0	32516	32320	
2079	0	32377	32525	
2080	0	32216	32411	
2081	0	32040	32340	
2082	0	31692	32090	
2083	0	31657	32298	
2084	0	32024	32400	
2085	0	32390	32672	
2086	0	32862	32680	
2087	0	32937	33650	
2088	0	33000	34043	
2089	0	33069	33583	
2090	0	33292	33454	
2091	0	33128	33878	
2092	0	32960	33641	
2093	0	32770	32952	
2094	0	32704	32512	
2095	0	32714	32061	
2096	0	32642	31879	
2097	0	32828	31843	
2098	0	32756	32198	
2099	0	32768	32098	
2100	0	32672	31674	
2101	0	32828	31820	
2102	0	32928	32521	
2103	0	32676	32730	
2104	0	32504	32891	
2105	0	32324	33223	
2106	0	32164	33308	
2107	0	32000	33424	
2108	0	31941	33280	
2109	0	32226	33027	
2110	0	32672	33151	
2111	0	32940	32969	
2112	0	33373	32599	
2113	0	33500	32579	
2114	0	33746	32576	
2115	0	33938	32467	
2116	0	34012	32001	
2117	0	34032	31978	
2118	0	33860	32429	
2119	0	33488	32791	
2120	0	32937	33277	
2121	0	32417	33274	
2122	0	31854	33124	
2123	0	31504	33246	
2124	0	31346	33078	
2125	0	31344	32916	
2126	0	31488	32967	
2127	0	31714	32775	
2128	0	32156	32987	
2129	0	32324	32863	
2130	0	32456	33195	
2131	0	32666	32981	
2132	0	32904	32595	
2133	0	32904	32199	
2134	0	32652	31742	
2135	0	32708	31858	
2136	0	32784	31830	
2137	0	32924	31888	
2138	0	33112	32263	
2139	0	33784	32227	
2140	0	34568	32486	
2141	0	35416	32463	
2142	0	35656	32923	
2143	0	35514	33451	
2144	0	34676	33666	
2145	0	33587	33696	
2146	0	32486	33581	
2147	0	31336	32912	
2148	0	30292	32738	
2149	0	29616	32959	
2150	0	29056	33138	
2151	0	28976	32996	
2152	0	29448	32959	
2153	0	30173	32852	
2154	0	31424	32504	
2155	0	32263	32613	
2156	0	32973	32293	
2157	0	33424	32058	
2158	0	33702	32135	
2159	0	33678	32257	
2160	0	33616	32487	
2161	0	33610	32364	
2162	0	33652	32984	
2163	0	33700	32935	
2164	0	33742	33070	
2165	0	33832	33068	
2166	0	33696	33069	
2167	0	33480	33136	
2168	0	33504	32704	
2169	0	33646	32327	
2170	0	33704	32239	
2171	0	33544	32617	
2172	0	33188	32412	
2173	0	33099	32930	
2174	0	32788	33064	
2175	0	32422	33123	
2176	0	32016	32704	
2177	0	31848	32775	
2178	0	32132	32981	
2179	0	32363	32361	
2180	0	32694	32227	
2181	0	32694	32524	
2182	0	32650	32545	
2183	0	32886	32918	
2184	0	33044	33214	
2185	0	33040	32963	
2186	0	32880	33222	
2187	0	32628	33188	
2188	0	32300	33554	
2189	0	32256	33414	
2190	0	32336	32621	
2191	0	32312	32493	
2192	0	32240	32127	
2193	0	32424	31805	
2194	0	32714	31804	
2195	0	33202	31972	
2196	0	33214	32005	
2197	0	33164	32071	
2198	0	33052	32694	
2199	0	32936	32751	
2200	0	32996	32626	
2201	0	33021	32582	
2202	0	32960	32775	
2203	0	33220	33444	
2204	0	33424	33441	
2205	0	33444	33326	
2206	0	33272	33519	
2207	0	32993	33159	
2208	0	32676	32599	
2209	0	32716	32829	
2210	0	32716	32726	
2211	0	32661	33072	
2212	0	32374	32795	
2213	0	32092	32466	
2214	0	32080	32427	
2215	0	32173	32922	
2216	0	32108	32583	
2217	0	31936	32305	
2218	0	31829	32355	
2219	0	32018	32349	
2220	0	31877	32512	
2221	0	31348	32891	
2222	0	31452	32983	
2223	0	31888	33283	
2224	0	32228	33321	
2225	0	32509	33062	
2226	0	33444	32930	
2227	0	33997	33205	
2228	0	34124	33285	
2229	0	34612	32912	
2230	0	34554	32584	
2231	0	34076	32810	
2232	0	33606	32257	
2233	0	33012	32399	
2234	0	32491	32519	
2235	0	32216	32331	
2236	0	32057	32109	
2237	0	31660	32547	
2238	0	31596	32581	
2239	0	31958	32722	
2240	0	32364	32726	
2241	0	32820	32914	
2242	0	32945	32434	
2243	0	32540	32467	
2244	0	32264	33204	
2245	0	31677	33193	
2246	0	31720	32864	
2247	0	32112	33044	
2248	0	32530	33221	
2249	0	32804	32586	
2250	0	33344	32486	
2251	0	33738	32880	
2252	0	33902	32728	
2253	0	33880	32679	
2254	0	33840	32496	
2255	0	33654	32386	
2256	0	33280	32418	
2257	0	33000	32327	
2258	0	32580	32247	
2259	0	32380	32180	
2260	0	32092	32768	
2261	0	32262	33191	
2262	0	32756	33912	
2263	0	32856	34282	
2264	0	32897	34430	
2265	0	33102	33806	
2266	0	33318	33040	
2267	0	33192	32196	
2268	0	33068	31800	
2269	0	32888	31636	
2270	0	32380	31140	
2271	0	32123	31370	
2272	0	31984	31966	
2273	0	32020	32235	
2274	0	32156	32277	
2275	0	32160	32405	
2276	0	32118	32709	
2277	0	32168	32790	
2278	0	32072	32984	
2279	0	32420	32914	
2280	0	32809	32960	
2281	0	33124	33384	
2282	0	33344	33015	
2283	0	33352	33021	
2284	0	33265	33328	
2285	0	33189	33403	
2286	0	33098	32991	
2287	0	33044	33104	
2288	0	32940	33032	
2289	0	32732	32853	
2290	0	32633	32720	
2291	0	32788	32932	
2292	0	32897	32453	
2293	0	32984	32438	
2294	0	33206	32562	
2295	0	33418	32495	
2296	0	33402	32043	
2297	0	33197	32066	
2298	0	32832	32417	
2299	0	32464	32495	
2300	0	32263	32686	
2301	0	32261	32887	
2302	0	32208	32895	
2303	0	32090	33391	
2304	0	31940	33122	
2305	0	32046	33247	
2306	0	32300	32912	
2307	0	32600	32633	
2308	0	32840	32524	
2309	0	32902	32409	
2310	0	32920	32605	
2311	0	33106	33287	
2312	0	32920	32809	
2313	0	33034	32359	
2314	0	33428	31864	
2315	0	33632	31702	
2316	0	33768	32387	
2317	0	33450	32495	
2318	0	33136	32768	
2319	0	32820	33145	
2320	0	32536	33022	
2321	0	32222	32665	
2322	0	32000	32472	
2323	0	31848	32703	
2324	0	31737	33441	
2325	0	31801	33195	
2326	0	31842	33049	
2327	0	31920	33143	
2328	0	32233	32745	
2329	0	32521	32572	
2330	0	32740	32978	
2331	0	32992	33140	
2332	0	33228	33159	
2333	0	33376	33020	
2334	0	33476	32760	
2335	0	33402	32823	
2336	0	33144	32439	
2337	0	32780	32372	
2338	0	32258	32461	
2339	0	31812	32087	
2340	0	31762	32485	
2341	0	32036	32417	
2342	0	32500	32883	
2343	0	32990	32843	
2344	0	33513	32854	
2345	0	33892	33131	
2346	0	34012	32975	
2347	0	33910	32905	
2348	0	33642	32871	
2349	0	33240	32612	
2350	0	32904	32394	
2351	0	32680	32775	
2352	0	32472	32767	
2353	0	32188	32338	
2354	0	32116	32349	
2355	0	32121	32671	
2356	0	32340	32642	
2357	0	32296	32307	
2358	0	32416	32153	
2359	0	32684	32549	
2360	0	33132	32701	
2361	0	33556	32623	
2362	0	33690	32880	
2363	0	33844	33316	
2364	0	33633	33107	
2365	0	33196	33231	
2366	0	32698	33045	
2367	0	32353	33087	
2368	0	32088	33223	
2369	0	31840	33065	
2370	0	31492	32653	
2371	0	31264	32305	
2372	0	31162	32659	
2373	0	31352	32637	
2374	0	31488	32321	
2375	0	31890	32412	
2376	0	32480	32370	
2377	0	32940	32216	
2378	0	32968	32221	
2379	0	33044	32628	
2380	0	33160	32617	
2381	0	33354	32555	
2382	0	33648	32938	
2383	0	33740	33282	
2384	0	33696	33266	
2385	0	33488	33140	
2386	0	33400	33206	
2387	0	33476	33147	
2388	0	33520	32974	
2389	0	33486	32743	
2390	0	33430	32641	
2391	0	33369	32691	
2392	0	33192	32838	
2393	0	33024	32692	
2394	0	32810	32565	
2395	0	32506	32254	
2396	0	32258	32399	
2397	0	32316	32306	
2398	0	32402	32491	
2399	0	32496	33084	
2400	0	32416	33077	
2401	0	32288	33018	
2402	0	32410	32867	
2403	0	32808	32912	
2404	0	33206	33038	
2405	0	33200	32989	
2406	0	32942	33144	
2407	0	33348	32599	
2408	0	33240	32512	
2409	0	32840	32427	
2410	0	32274	32333	
2411	0	31728	32566	
2412	0	31238	32924	
2413	0	31474	33007	
2414	0	31570	32905	
2415	0	31448	32491	
2416	0	31680	32174	
2417	0	31568	31985	
2418	0	32032	32300	
2419	0	32896	32420	
2420	0	33812	32644	
2421	0	34879	33223	
2422	0	35200	33236	
2423	0	35072	33127	
2424	0	34884	33302	
2425	0	34168	32976	
2426	0	33364	33092	
2427	0	32560	33358	
2428	0	31761	33271	
2429	0	30936	33328	
2430	0	30264	33036	
2431	0	29978	32829	
2432	0	29857	32293	
2433	0	30401	32105	
2434	0	31050	31682	
2435	0	31976	31420	
2436	0	32852	31862	
2437	0	33434	32219	
2438	0	33568	32352	
2439	0	33372	32909	
2440	0	33172	33070	
2441	0	33193	33070	
2442	0	33287	33216	
2443	0	33356	33271	
2444	0	33482	32991	
2445	0	33512	33031	
2446	0	33728	33248	
2447	0	33792	33250	
2448	0	33316	33010	
2449	0	32984	32646	
2450	0	33344	32547	
2451	0	33560	32871	
2452	0	33330	32634	
2453	0	32878	32584	
2454	0	32584	32835	
2455	0	32940	32862	
2456	0	33036	32483	
2457	0	32891	32006	
2458	0	32864	31854	
2459	0	33032	31997	
2460	0	33192	32470	
2461	0	33170	32885	
2462	0	32658	33050	
2463	0	32244	33097	
2464	0	32253	33495	
2465	0	32340	33110	
2466	0	32110	32750	
2467	0	32170	32886	
2468	0	32188	32931	
2469	0	32263	32766	
2470	0	32176	32702	
2471	0	32416	32903	
2472	0	32468	32847	
2473	0	32324	32680	
2474	0	32337	32488	
2475	0	32736	32431	
2476	0	33044	31721	
2477	0	33708	31860	
2478	0	34125	32186	
2479	0	34224	32856	
2480	0	34296	33086	
2481	0	34332	33217	
2482	0	34117	33253	
2483	0	33765	33236	
2484	0	33184	33221	
2485	0	32758	33067	
2486	0	32240	32739	
2487	0	32039	32509	
2488	0	32070	32498	
2489	0	32802	32516	
2490	0	33578	32866	
2491	0	34060	32623	
2492	0	34112	32263	
2493	0	32912	32066	
2494	0	31352	32317	
2495	0	30170	32498	
2496	0	29229	32352	
2497	0	28484	32770	
2498	0	28608	33040	
2499	0	28798	33010	
2500	0	29192	33157	
2501	0	30303	33102	
2502	0	32080	33035	
2503	0	33424	33059	
2504	0	34242	32822	
2505	0	34650	32623	
2506	0	34672	32524	
2507	0	34905	32327	
2508	0	34896	32069	
2509	0	34557	32747	
2510	0	34344	33265	
2511	0	34272	33792	
2512	0	34136	33283	
2513	0	33576	33221	
2514	0	32881	32935	
2515	0	32484	32851	
2516	0	32960	32297	
2517	0	33332	31743	
2518	0	33093	31839	
2519	0	33312	31890	
2520	0	33444	31894	
2521	0	33508	32784	
2522	0	33723	33180	
2523	0	33792	32944	
2524	0	33376	32971	
2525	0	33152	33095	
2526	0	33124	32754	
2527	0	32904	33030	
2528	0	32468	32933	
2529	0	32263	32878	
2530	0	32442	32805	
2531	0	33096	32552	
2532	0	32864	32519	
2533	0	32829	32857	
2534	0	33284	32665	
2535	0	33080	32843	
2536	0	31994	32635	
2537	0	31691	32248	
2538	0	31268	32486	
2539	0	30832	32582	
2540	0	30176	33030	
2541	0	30328	33303	
2542	0	30737	33347	
2543	0	30760	32519	
2544	0	30629	32162	
2545	0	30453	32137	
2546	0	30692	32186	
2547	0	31772	32406	
2548	0	32800	32546	
2549	0	33376	33075	
2550	0	33648	33533	
2551	0	34072	33428	
2552	0	34392	33065	
2553	0	34457	32984	
2554	0	34626	32884	
2555	0	34896	32623	
2556	0	35100	32255	
2557	0	34996	31943	
2558	0	34834	32220	
2559	0	35042	32484	
2560	0	35213	32354	
2561	0	34662	32811	
2562	0	33720	32760	
2563	0	32912	33305	
2564	0	31764	33096	
2565	0	30498	33398	
2566	0	30210	32766	
2567	0	31163	32838	
2568	0	31658	33104	
2569	0	32200	32886	
2570	0	32914	32674	
2571	0	34194	32492	
2572	0	34898	32184	
2573	0	35144	32071	
2574	0	34402	32357	
2575	0	33430	32487	
2576	0	32412	32559	
2577	0	31338	32984	
2578	0	29948	32327	
2579	0	29216	32263	
2580	0	28920	32832	
2581	0	29008	32998	
2582	0	30170	33225	
2583	0	31554	33644	
2584	0	32768	33010	
2585	0	33256	32770	
2586	0	33487	33197	
2587	0	34244	32746	
2588	0	35808	31691	
2589	0	35988	31730	
2590	0	35520	32479	
2591	0	34472	33274	
2592	0	33146	34166	
2593	0	32576	34386	
2594	0	32476	33927	
2595	0	32101	33194	
2596	0	31712	32350	
2597	0	31688	32073	
2598	0	31986	32406	
2599	0	31842	32305	
2600	0	31200	31994	
2601	0	31186	31917	
2602	0	31884	31652	
2603	0	32077	32420	
2604	0	32432	32815	
2605	0	33074	32948	
2606	0	33392	33067	
2607	0	33928	32887	
2608	0	34076	32798	
2609	0	33352	33275	
2610	0	33492	33540	
2611	0	33840	33539	
2612	0	33267	33258	
2613	0	32394	32418	
2614	0	31626	32589	
2615	0	30860	32675	
2616	0	30164	32263	
2617	0	30732	31099	
2618	0	31440	30500	
2619	0	32217	31360	
2620	0	33336	32570	
2621	0	34582	33055	
2622	0	35224	33068	
2623	0	36244	32839	
2624	0	36538	32846	
2625	0	36006	32915	
2626	0	35128	32773	
2627	0	33988	33148	
2628	0	32032	33091	
2629	0	30557	33202	
2630	0	29460	33267	
2631	0	28661	33137	
2632	0	29646	33107	
2633	0	31228	32925	
2634	0	33402	33158	
2635	0	35464	33277	
2636	0	35752	32954	
2637	0	35764	32713	
2638	0	34944	32733	
2639	0	33186	32027	
2640	0	32116	31823	
2641	0	31976	31775	
2642	0	31556	32756	
2643	0	31097	33347	
2644	0	31064	33351	
2645	0	30534	33458	
2646	0	29360	32728	
2647	0	29760	32490	
2648	0	30617	32663	
2649	0	30768	32881	
2650	0	30816	33387	
2651	0	32260	33458	
2652	0	33410	33598	
2653	0	34708	32992	
2654	0	35176	32492	
2655	0	34720	32095	
2656	0	34540	31572	
2657	0	34887	31638	
2658	0	34688	31650	
2659	0	34224	31751	
2660	0	33581	32510	
2661	0	32740	33278	
2662	0	32644	33381	
2663	0	32201	32455	
2664	0	31840	32274	
2665	0	31624	32579	
2666	0	31809	33062	
2667	0	32520	33574	
2668	0	32646	33919	
2669	0	32100	33063	
2670	0	31856	32330	
2671	0	31342	33182	
2672	0	31476	33799	
2673	0	32496	33234	
2674	0	33548	32762	
2675	0	34712	32844	
2676	0	35194	32138	
2677	0	35408	32134	
2678	0	36468	32289	
2679	0	36324	32108	
2680	0	35796	32449	
2681	0	35112	32803	
2682	0	35488	32596	
2683	0	36032	32210	
2684	0	35532	32655	
2685	0	34528	32829	
2686	0	31900	33172	
2687	0	28192	33195	
2688	0	27096	33152	
2689	0	25920	32876	
2690	0	24440	32422	
2691	0	24852	31976	
2692	0	26768	32683	
2693	0	30197	33072	
2694	0	32636	32602	
2695	0	33848	32718	
2696	0	34530	32608	
2697	0	35786	32509	
2698	0	35568	33031	
2699	0	34898	33205	
2700	0	34304	32919	
2701	0	33194	32549	
2702	0	32804	32736	
2703	0	32438	32890	
2704	0	32212	33041	
2705	0	32480	33095	
2706	0	32538	32674	
2707	0	32560	32687	
2708	0	32854	32511	
2709	0	33544	32500	
2710	0	33824	32331	
2711	0	33567	32276	
2712	0	33220	32131	
2713	0	32532	32199	
2714	0	31965	32786	
2715	0	31291	33249	
2716	0	31108	33396	
2717	0	31597	32887	
2718	0	32416	32707	
2719	0	33160	32796	
2720	0	33170	32995	
2721	0	33720	32336	
2722	0	34802	31914	
2723	0	35620	31578	
2724	0	36093	31690	
2725	0	35802	32356	
2726	0	35506	32935	
2727	0	33944	33207	
2728	0	33316	33643	
2729	0	33972	33565	
2730	0	34508	33227	
2731	0	34297	32938	
2732	0	33984	32866	
2733	0	33992	33124	
2734	0	32968	32764	
2735	0	32109	32484	
2736	0	32500	32583	
2737	0	32102	32609	
2738	0	31170	32904	
2739	0	30466	32918	
2740	0	29328	33130	
2741	0	28642	33686	
2742	0	28816	33746	
2743	0	29044	33494	
2744	0	30256	33091	
2745	0	32820	32654	
2746	0	34340	32254	
2747	0	35228	31966	
2748	0	34788	32084	
2749	0	33352	31648	
2750	0	32408	30346	
2751	0	30640	30004	
2752	0	30122	31375	
2753	0	30684	32339	
2754	0	32186	32819	
2755	0	33984	33866	
2756	0	33194	34424	
2757	0	33602	34297	
2758	0	34410	33560	
2759	0	33722	32843	
2760	0	33402	32377	
2761	0	33348	32802	
2762	0	32976	33626	
2763	0	32965	33846	
2764	0	33305	33431	
2765	0	33924	33499	
2766	0	33920	32945	
2767	0	34048	32282	
2768	0	34204	31508	
2769	0	33128	31799	
2770	0	30485	32362	
2771	0	28868	33354	
2772	0	28617	33067	
2773	0	30664	32096	
2774	0	33298	31346	
2775	0	34456	31111	
2776	0	35116	31884	
2777	0	36128	32751	
2778	0	36332	33184	
2779	0	34956	33576	
2780	0	32792	33815	
2781	0	31816	33134	
2782	0	30818	33010	
2783	0	28980	32600	
2784	0	30056	32232	
2785	0	30188	32391	
2786	0	31980	32753	
2787	0	33144	32992	
2788	0	33705	33611	
2789	0	34048	33523	
2790	0	33598	33049	
2791	0	32200	33219	
2792	0	29445	33227	
2793	0	28790	32996	
2794	0	29456	32792	
2795	0	31101	32084	
2796	0	33752	32333	
2797	0	35712	32775	
2798	0	37106	32688	
2799	0	38816	32764	
2800	0	39504	32964	
2801	0	39626	33002	
2802	0	39026	33055	
2803	0	37600	33193	
2804	0	34942	33311	
2805	0	32225	33260	
2806	0	32482	33065	
2807	0	31352	32277	
2808	0	29504	31640	
2809	0	26772	31711	
2810	0	26112	31736	
2811	0	28586	31791	
2812	0	31632	32394	
2813	0	33064	32775	
2814	0	32632	31980	
2815	0	31576	31804	
2816	0	32304	32023	
2817	0	32600	32094	
2818	0	32184	33003	
2819	0	33414	33524	
2820	0	36052	33312	
2821	0	39840	33400	
2822	0	39692	33432	
2823	0	40020	33906	
2824	0	39312	33647	
2825	0	36820	33170	
2826	0	34074	33763	
2827	0	31250	33324	
2828	0	26796	33240	
2829	0	22690	32896	
2830	0	20576	32524	
2831	0	16939	32586	
2832	0	13785	32208	
2833	0	16226	32487	
2834	0	24622	32866	
2835	0	31089	32364	
2836	0	33112	32582	
2837	0	36040	32329	
2838	0	40270	32064	
2839	0	43988	32002	
2840	0	45960	32390	
2841	0	44276	32877	
2842	0	39810	33567	
2843	0	33920	33705	
2844	0	28170	33656	
2845	0	25988	32857	
2846	0	26976	32717	
2847	0	33960	32280	
2848	0	38460	31240	
2849	0	41208	30476	
2850	0	39760	31197	
2851	0	37952	32460	
2852	0	36128	33296	
2853	0	33384	33420	
2854	0	31676	33576	
2855	0	31564	33448	
2856	0	31824	33119	
2857	0	32056	32869	
2858	0	34020	32378	
2859	0	36419	32836	
2860	0	39316	33119	
2861	0	37808	33001	
2862	0	36528	32667	
2863	0	31308	32356	
2864	0	25936	33326	
2865	0	21208	33848	
2866	0	18317	33674	
2867	0	17520	32946	
2868	0	20284	32509	
2869	0	25560	32248	
2870	0	31816	31468	
2871	0	36592	31606	
2872	0	39324	32038	
2873	0	40306	31938	
2874	0	42496	31604	
2875	0	42436	32428	
2876	0	39362	32651	
2877	0	36928	32658	
2878	0	34400	32751	
2879	0	32848	32775	
2880	0	33036	33223	
2881	0	30428	33228	
2882	0	32008	32864	
2883	0	37005	31620	
2884	0	39234	31670	
2885	0	39562	32228	
2886	0	37214	32154	
2887	0	29988	33410	
2888	0	24417	34252	
2889	0	27384	33976	
2890	0	31608	33682	
2891	0	32737	33524	
2892	0	28024	33021	
2893	0	26324	33144	
2894	0	28108	33038	
2895	0	28940	32783	
2896	0	31468	32198	
2897	0	29360	31160	
2898	0	23136	30536	
2899	0	23928	31521	
2900	0	26192	32568	
2901	0	28760	33188	
2902	0	38075	33568	
2903	0	45626	33304	
2904	0	50116	33060	
2905	0	51288	32642	
2906	0	48027	32821	
2907	0	43378	33378	
2908	0	33512	32944	
2909	0	21538	31768	
2910	0	13613	31884	
2911	0	8130	33522	
2912	0	6552	35360	
2913	0	18506	35640	
2914	0	38892	34297	
2915	0	50040	33872	
2916	0	50809	33244	
2917	0	45440	32096	
2918	0	37392	32008	
2919	0	32672	31560	
2920	0	25884	31836	
2921	0	26330	33014	
2922	0	28110	33371	
2923	0	29048	32702	
2924	0	27938	31854	
2925	0	31176	30795	
2926	0	33276	30756	
2927	0	32832	31177	
2928	0	34448	31897	
2929	0	33476	32221	
2930	0	36640	32333	
2931	0	40620	32930	
2932	0	42136	33976	
2933	0	42396	33479	
2934	0	39819	32909	
2935	0	35500	32074	
2936	0	29802	32388	
2937	0	25384	32404	
2938	0	20568	33248	
2939	0	19842	33298	
2940	0	21536	33012	
2941	0	23468	32848	
2942	0	28328	32994	
2943	0	41372	32816	
2944	0	55116	32116	
2945	0	60201	33817	
2946	0	57768	33968	
2947	0	54624	32028	
2948	0	51846	31352	
2949	0	49434	30940	
2950	0	38030	32480	
2951	0	31120	33794	
2952	0	25060	31304	
2953	0	13983	29280	
2954	0	7584	30136	
2955	0	10129	31260	
2956	0	12227	31170	
2957	0	13066	31428	
2958	0	16096	33352	
2959	0	26112	34586	
2960	0	33916	36816	
2961	0	37409	37711	
2962	0	37562	36306	
2963	0	34438	34453	
2964	0	29212	32772	
2965	0	28132	30978	
2966	0	29066	30616	
2967	0	31093	31634	
2968	0	33092	31352	
2969	0	29928	31572	
2970	0	30776	31277	
2971	0	28388	32138	
2972	0	29328	34160	
2973	0	29901	34251	
2974	0	27096	34606	
2975	0	27570	34411	
2976	0	31122	34004	
2977	0	36398	33110	
2978	0	44896	33337	
2979	0	53592	32706	
2980	0	55616	32726	
2981	0	51306	32988	
2982	0	43848	32716	
2983	0	35924	31244	
2984	0	25276	30788	
2985	0	17900	30681	
2986	0	17320	31751	
2987	0	23130	32068	
2988	0	30748	32738	
2989	0	36168	33348	
2990	0	43496	34472	
2991	0	46586	33784	
2992	0	43440	32815	
2993	0	40921	33013	
2994	0	35442	32328	
2995	0	27755	32708	
2996	0	26132	33260	
2997	0	26854	33638	
2998	0	31588	33712	
2999	0	41592	33168	
3000	0	46032	33644	
3001	0	49168	34124	
3002	0	45304	34207	
3003	0	33768	31968	
3004	0	22688	30964	
3005	0	8450	30944	
3006	0	752	31736	
3007	0	9346	32056	
3008	0	22040	32494	
3009	0	31732	31880	
3010	0	37288	32024	
3011	0	40514	32966	
3012	0	39906	33250	
3013	0	44188	33509	
3014	0	42512	33528	
3015	0	34196	33696	
3016	0	25282	32944	
3017	0	19998	31016	
3018	0	19186	29274	
3019	0	19878	28940	
3020	0	25178	30292	
3021	0	32472	30881	
3022	0	36768	31336	
3023	0	34945	31578	
3024	0	32906	32309	
3025	0	35394	33986	
3026	0	44550	35864	
3027	0	50816	35782	
3028	0	49248	34784	
3029	0	48856	34360	
3030	0	46232	34311	
3031	0	41668	33120	
3032	0	34482	32416	
3033	0	26056	31936	
3034	0	20088	32802	
3035	0	20824	33624	
3036	0	21450	33268	
3037	0	20544	33492	
3038	0	21808	32715	
3039	0	26836	33117	
3040	0	33938	32376	
3041	0	34306	32030	
3042	0	33632	33324	
3043	0	38336	33992	
3044	0	45601	34152	
3045	0	53132	33504	
3046	0	50288	32368	
3047	0	38316	30890	
3048	0	28016	30301	
3049	0	25488	29949	
3050	0	19844	31328	
3051	0	11676	32004	
3052	0	12416	33063	
3053	0	21802	33470	
3054	0	34224	33476	
3055	0	41280	33441	
3056	0	41828	33445	
3057	0	39280	33670	
3058	0	35772	32009	
3059	0	33896	31472	
3060	0	31636	32172	
3061	0	29750	30818	
3062	0	30954	31130	
3063	0	31760	32343	
3064	0	33252	32674	
3065	0	43384	33356	
3066	0	49688	33756	
3067	0	49328	34157	
3068	0	44420	34255	
3069	0	40616	33910	
3070	0	31424	34468	
3071	0	22828	34148	
3072	0	25324	33899	
3073	0	24829	34000	
3074	0	18730	32736	
3075	0	12011	31824	
3076	0	6516	31492	
3077	0	9145	31652	
3078	0	16852	32420	
3079	0	36116	32840	
3080	0	40112	32412	
3081	0	41008	32808	
3082	0	40724	32091	
3083	0	40404	30236	
3084	0	40505	30241	
3085	0	42112	30668	
3086	0	40493	32446	
3087	0	37837	33245	
3088	0	37768	33337	
3089	0	38732	33662	
3090	0	37348	33749	
3091	0	33500	34264	
3092	0	28720	34363	
3093	0	30116	32948	
3094	0	29590	32282	
3095	0	31796	31644	
3096	0	31408	31679	
3097	0	36218	33418	
3098	0	41576	34048	
3099	0	41259	33770	
3100	0	39576	33053	
3101	0	36522	32043	
3102	0	34744	31792	
3103	0	38432	31608	
3104	0	48992	32224	
3105	0	51880	32892	
3106	0	49016	31906	
3107	0	45942	31576	
3108	0	38756	33482	
3109	0	28176	34292	
3110	0	14137	32546	
3111	0	1460	32084	
3112	0	0	32208	
3113	0	2257	31928	
3114	0	6456	32217	
3115	0	9964	32242	
3116	0	12931	32843	
3117	0	28000	33108	
3118	0	35448	33474	
3119	0	42706	34016	
3120	0	50760	34120	
3121	0	53336	33946	
3122	0	55434	33580	
3123	0	53284	32862	
3124	0	46100	33216	
3125	0	36748	31736	
3126	0	24082	29356	
3127	0	17312	31474	
3128	0	25792	33824	
3129	0	41700	35994	
3130	0	50432	38078	
3131	0	52136	33932	
3132	0	48554	30560	
3133	0	42520	30732	
3134	0	34820	32568	
3135	0	24168	32402	
3136	0	20853	31472	
3137	0	18880	30992	
3138	0	14632	30792	
3139	0	14752	30422	
3140	0	22914	30902	
3141	0	31965	32117	
3142	0	30522	31805	
3143	0	32976	31760	
3144	0	31216	32254	
3145	0	28824	33463	
3146	0	24940	34164	
3147	0	25714	34068	
3148	0	31022	33616	
3149	0	34736	34128	
3150	0	39498	34018	
3151	0	53529	33512	
3152	0	60364	31696	
3153	0	58384	30788	
3154	0	55204	31773	
3155	0	43048	33528	
3156	0	29058	32672	
3157	0	15331	32232	
3158	0	2278	32557	
3159	0	1375	33272	
3160	0	8854	33519	
3161	0	12016	33071	
3162	0	16553	32698	
3163	0	23828	32698	
3164	0	30060	34402	
3165	0	33524	33682	
3166	0	44600	32716	
3167	0	58064	32744	
3168	0	59906	33332	
3169	0	52924	33554	
3170	0	43080	33689	
3171	0	36102	34370	
3172	0	32308	33642	
3173	0	33068	31472	
3174	0	31656	29993	
3175	0	30034	29990	
3176	0	31936	30978	
3177	0	33370	31352	
3178	0	36674	31650	
3179	0	36058	32215	
3180	0	34328	33316	
3181	0	31040	31214	
3182	0	29112	30313	
3183	0	26712	31239	
3184	0	27654	32197	
3185	0	31460	33572	
3186	0	32420	34345	
3187	0	29606	34680	
3188	0	27378	35277	
3189	0	28480	34247	
3190	0	29272	34592	
3191	0	30064	34232	
3192	0	28725	32867	
3193	0	27869	32114	
3194	0	34600	32424	
3195	0	43204	32628	
3196	0	51808	33114	
3197	0	54791	33786	
3198	0	48994	33680	
3199	0	38496	32688	
3200	0	28528	31826	
3201	0	17008	31424	
3202	0	6998	31572	
3203	0	7342	32186	
3204	0	11520	33277	
3205	0	19031	34848	
3206	0	30936	34184	
3207	0	44004	33496	
3208	0	54576	33476	
3209	0	57572	33300	
3210	0	56774	31492	
3211	0	51680	30146	
3212	0	44296	29520	
3213	0	36992	30538	
3214	0	25324	32184	
3215	0	17428	32804	
3216	0	13414	32050	
3217	0	15852	31943	
3218	0	19014	31936	
3219	0	24822	32300	
3220	0	31144	32992	
3221	0	37144	33296	
3222	0	39636	32868	
3223	0	40112	32802	
3224	0	42436	33879	
3225	0	43092	35216	
3226	0	38512	34005	
3227	0	35353	31585	
3228	0	33416	30507	
3229	0	24460	31884	
3230	0	23098	33494	
3231	0	28292	33510	
3232	0	33213	33675	
3233	0	35021	33400	
3234	0	34341	33287	
3235	0	34096	33548	
3236	0	32626	33660	
3237	0	25067	32808	
3238	0	16304	31932	
3239	0	10140	32392	
3240	0	10146	32612	
3241	0	23444	32464	
3242	0	40426	31848	
3243	0	51020	30653	
3244	0	49176	30326	
3245	0	42028	30800	
3246	0	36312	32128	
3247	0	33347	33326	
3248	0	29160	34151	
3249	0	36212	34004	
3250	0	46000	33532	
3251	0	46648	33414	
3252	0	47296	34328	
3253	0	43398	34870	
3254	0	38860	34304	
3255	0	26492	34008	
3256	0	14893	31396	
3257	0	10328	31322	
3258	0	11416	31732	
3259	0	23720	32348	
3260	0	29004	32386	
3261	0	35908	32235	
3262	0	37648	32800	
3263	0	36252	32622	
3264	0	34648	33636	
3265	0	32168	33678	
3266	0	31960	33156	
3267	0	42132	31396	
3268	0	49594	31214	
3269	0	49554	31232	
3270	0	48586	31456	
3271	0	45540	31268	
3272	0	41484	31458	
3273	0	36720	32206	
3274	0	31436	33240	
3275	0	22340	33604	
3276	0	20898	34320	
3277	0	20392	35398	
3278	0	14800	34742	
3279	0	16196	33709	
3280	0	24457	33704	
3281	0	32624	33355	
3282	0	38520	32822	
3283	0	38984	32159	
3284	0	34144	31992	
3285	0	28376	30919	
3286	0	26360	30574	
3287	0	29716	31020	
3288	0	34920	30674	
3289	0	35208	32173	
3290	0	34840	32679	
3291	0	32148	32673	
3292	0	30756	33520	
3293	0	28704	33707	
3294	0	26264	32825	
3295	0	27406	31976	
3296	0	30544	32097	
3297	0	31418	32304	
3298	0	30980	32260	
3299	0	38082	32728	
3300	0	47944	33129	
3301	0	53356	33898	
3302	0	54530	34354	
3303	0	50464	33934	
3304	0	42884	33416	
3305	0	35128	33636	
3306	0	23325	34168	
3307	0	9576	34672	
3308	0	2606	33344	
3309	0	4992	33624	
3310	0	8634	32426	
3311	0	18386	32130	
3312	0	27996	32792	
3313	0	35668	32464	
3314	0	45836	31656	
3315	0	49241	32314	
3316	0	49042	32572	
3317	0	50516	33152	
3318	0	50284	33033	
3319	0	45552	31039	
3320	0	43472	29488	
3321	0	42408	31289	
3322	0	39114	32506	
3323	0	32640	32274	
3324	0	27874	31224	
3325	0	31301	32471	
3326	0	35512	31884	
3327	0	36628	32156	
3328	0	39325	32723	
3329	0	35938	32641	
3330	0	31290	33160	
3331	0	29488	32809	
3332	0	27888	34137	
3333	0	30019	35288	
3334	0	28477	33946	
3335	0	28202	32616	
3336	0	24208	32522	
3337	0	23304	33400	
3338	0	27834	33951	
3339	0	28114	33424	
3340	0	24798	32384	
3341	0	17706	31838	
3342	0	17344	32138	
3343	0	16896	33856	
3344	0	15626	35014	
3345	0	16608	34512	
3346	0	14990	34643	
3347	0	16834	33080	
3348	0	21632	31499	
3349	0	35314	30908	
3350	0	40500	31126	
3351	0	44824	31268	
3352	0	54480	31252	
3353	0	61906	31540	
3354	0	62384	32374	
3355	0	59264	32912	
3356	0	53036	32762	
3357	0	48728	31376	
3358	0	45706	31130	
3359	0	49268	30904	
3360	0	50568	31504	
3361	0	48774	32822	
3362	0	45568	35456	
3363	0	27424	35708	
3364	0	13485	33412	
3365	0	9773	31144	
3366	0	7232	31264	
3367	0	7816	33276	
3368	0	9267	34078	
3369	0	9160	33996	
3370	0	14168	32228	
3371	0	16936	31340	
3372	0	19144	32266	
3373	0	26166	33677	
3374	0	36938	34632	
3375	0	47436	34802	
3376	0	49290	33840	
3377	0	56448	32704	
3378	0	60604	33160	
3379	0	53556	32416	
3380	0	44760	31242	
3381	0	33362	30498	
3382	0	29144	31970	
3383	0	21641	33788	
3384	0	12482	33468	
3385	0	11524	33608	
3386	0	20596	34066	
3387	0	30146	33504	
3388	0	43448	32394	
3389	0	51116	32332	
3390	0	43904	33210	
3391	0	34916	33233	
3392	0	26809	32300	
3393	0	20129	31960	
3394	0	16244	31957	
3395	0	17465	31720	
3396	0	26856	31504	
3397	0	38850	29924	
3398	0	41240	29656	
3399	0	38962	31128	
3400	0	38116	31500	
3401	0	38576	31056	
3402	0	36998	32516	
3403	0	40568	33458	
3404	0	42316	34430	
3405	0	40981	34356	
3406	0	38636	33792	
3407	0	33024	33186	
3408	0	24932	31660	
3409	0	19000	32586	
3410	0	19948	35012	
3411	0	20961	34844	
3412	0	24302	34892	
3413	0	28012	34603	
3414	0	33312	33952	
3415	0	41184	33440	
3416	0	52712	33352	
3417	0	60072	32224	
3418	0	57626	31560	
3419	0	54504	32296	
3420	0	51748	32165	
3421	0	49344	32649	
3422	0	47252	32078	
3423	0	15214	32112	
3424	0	0	31818	
3425	0	0	33309	
3426	0	0	34009	
3427	0	5118	33872	
3428	0	8853	32198	
3429	0	11977	31363	
3430	0	14660	31512	
3431	0	16964	31599	
3432	0	37514	31876	
3433	0	50333	31828	
3434	0	60556	31336	
3435	0	62600	31572	
3436	0	63320	32250	
3437	0	58424	31793	
3438	0	50281	30470	
3439	0	39089	31130	
3440	0	28040	33422	
3441	0	21984	33602	
3442	0	18001	32716	
3443	0	18030	32508	
3444	0	18264	33562	
3445	0	19436	35298	
3446	0	17122	34194	
3447	0	18970	33012	
3448	0	31250	32828	
3449	0	42618	34904	
3450	0	46880	35680	
3451	0	52488	35480	
3452	0	59634	33636	
3453	0	58098	31720	
3454	0	55008	30048	
3455	0	52168	31250	
3456	0	49728	31572	
3457	0	18384	32780	
3458	0	0	34004	
3459	0	0	33222	
3460	0	1877	31060	
3461	0	6153	30989	
3462	0	9718	31334	
3463	0	12726	32448	
3464	0	15304	32857	
3465	0	32652	33060	
3466	0	42116	32818	
3467	0	45472	31411	
3468	0	47988	31652	
3469	0	48016	32203	
3470	0	46608	33122	
3471	0	42148	34942	
3472	0	36984	34475	
3473	0	36888	33452	
3474	0	36004	32185	
3475	0	34994	31036	
3476	0	31732	30615	
3477	0	27136	30380	
3478	0	22560	31432	
3479	0	26274	33324	
3480	0	33236	33476	
3481	0	42032	33894	
3482	0	51384	33778	
3483	0	52980	34156	
3484	0	51040	34701	
3485	0	45721	33358	
3486	0	41184	34013	
3487	0	38314	33172	
3488	0	34424	31298	
3489	0	31346	31368	
3490	0	31098	32755	
3491	0	28860	32768	
3492	0	21306	32252	
3493	0	14504	33032	
3494	0	11694	33846	
3495	0	16614	33798	
3496	0	21442	33378	
3497	0	31204	32554	
3498	0	38258	31738	
3499	0	40240	32101	
3500	0	39264	32067	
3501	0	43714	30992	
3502	0	46658	31953	
3503	0	48264	33302	
3504	0	45346	33761	
3505	0	38594	32746	
3506	0	30857	31704	
3507	0	20909	32632	
3508	0	18888	33699	
3509	0	17901	34232	
3510	0	18180	33920	
3511	0	23537	32722	
3512	0	29114	31806	
3513	0	29310	31187	
3514	0	29550	31431	
3515	0	31396	33402	
3516	0	33698	34212	
3517	0	31314	35440	
3518	0	31088	36170	
3519	0	33816	34170	
3520	0	36168	29412	
3521	0	36458	27240	
3522	0	34314	28514	
3523	0	32242	31104	
3524	0	33904	30560	
3525	0	42364	29984	
3526	0	42960	31320	
3527	0	37784	32618	
3528	0	28338	35122	
3529	0	23293	38002	
3530	0	22803	37310	
3531	0	23484	35116	
3532	0	24260	34761	
3533	0	27932	33081	
3534	0	42112	32976	
3535	0	56224	34466	
3536	0	58000	32248	
3537	0	50194	30542	
3538	0	38537	32354	
3539	0	30116	33446	
3540	0	26144	33608	
3541	0	21544	32984	
3542	0	15813	31744	
3543	0	13634	30709	
3544	0	13530	29972	
3545	0	20682	29648	
3546	0	30684	30790	
3547	0	35418	32346	
3548	0	36928	32511	
3549	0	34728	33106	
3550	0	29986	33848	
3551	0	29120	34396	
3552	0	39904	33960	
3553	0	49728	32984	
3554	0	55380	32836	
3555	0	57400	33400	
3556	0	54512	33106	
3557	0	48092	32460	
3558	0	41552	32453	
3559	0	30426	32774	
3560	0	17864	32804	
3561	0	11912	32320	
3562	0	17092	32712	
3563	0	17672	33090	
3564	0	17700	32939	
3565	0	18954	33304	
3566	0	23225	33088	
3567	0	33096	33042	
3568	0	40012	32398	
3569	0	43865	32969	
3570	0	44002	32979	
3571	0	39848	32202	
3572	0	34298	31832	
3573	0	33984	31413	
3574	0	37141	31296	
3575	0	38352	31556	
3576	0	35956	31066	
3577	0	34232	31521	
3578	0	32468	32847	
3579	0	33134	33164	
3580	0	41020	34211	
3581	0	44796	36004	
3582	0	38016	34124	
3583	0	22620	33824	
3584	0	10696	35344	
3585	0	4681	34810	
3586	0	9488	34496	
3587	0	23724	34320	
3588	0	33048	33600	
3589	0	41272	32412	
3590	0	42744	30662	
3591	0	37108	24846	
3592	0	29782	26428	
3593	0	29648	30892	
3594	0	33308	35222	
3595	0	35560	38592	
3596	0	36826	37360	
3597	0	38092	31110	
3598	0	38626	31099	
3599	0	36308	32109	
3600	0	34268	32933	
3601	0	31800	33059	
3602	0	29737	32227	
3603	0	28625	33150	
3604	0	26724	33724	
3605	0	30708	34288	
3606	0	37360	32724	
3607	0	42200	29248	
3608	0	48080	26536	
3609	0	48000	30292	
3610	0	46336	33142	
3611	0	42400	32818	
3612	0	30772	31560	
3613	0	19804	32280	
3614	0	14004	33320	
3615	0	11090	35794	
3616	0	15893	36164	
3617	0	27220	34977	
3618	0	31072	33644	
3619	0	32226	32519	
3620	0	31658	32623	
3621	0	30617	33178	
3622	0	34891	33249	
3623	0	45020	33152	
3624	0	55520	32182	
3625	0	59488	32912	
3626	0	56752	33270	
3627	0	49130	32504	
3628	0	35640	32038	
3629	0	29857	32000	
3630	0	20908	31993	
3631	0	14800	32106	
3632	0	9180	32112	
3633	0	9661	32039	
3634	0	13448	33018	
3635	0	17640	33159	
3636	0	22184	32914	
3637	0	30144	32912	
3638	0	40242	32276	
3639	0	45190	32544	
3640	0	42768	33078	
3641	0	36324	33336	
3642	0	36608	33336	
3643	0	41842	33225	
3644	0	43388	32961	
3645	0	41084	32876	
3646	0	34532	33156	
3647	0	26934	33692	
3648	0	22394	33562	
3649	0	22208	32971	
3650	0	25808	32126	
3651	0	27611	32514	
3652	0	28189	32651	
3653	0	29706	33163	
3654	0	30076	32590	
3655	0	39408	31884	
3656	0	50896	31012	
3657	0	51745	32237	
3658	0	49212	33066	
3659	0	49472	31096	
3660	0	45644	30970	
3661	0	37812	32514	
3662	0	33004	34038	
3663	0	35240	34146	
3664	0	37618	32298	
3665	0	37456	32121	
3666	0	33992	33988	
3667	0	34128	34148	
3668	0	25694	33148	
3669	0	13560	30820	
3670	0	8468	30073	
3671	0	2841	31540	
3672	0	5332	32984	
3673	0	14842	33394	
3674	0	27826	33556	
3675	0	42488	33764	
3676	0	47856	32968	
3677	0	43378	30676	
3678	0	35334	29501	
3679	0	28106	31980	
3680	0	20986	32944	
3681	0	18037	35408	
3682	0	18469	37864	
3683	0	21104	36444	
3684	0	26264	33336	
3685	0	31312	29224	
3686	0	40340	28800	
3687	0	45500	30172	
3688	0	47496	30752	
3689	0	47472	32510	
3690	0	49236	34434	
3691	0	57608	34554	
3692	0	56468	33108	
3693	0	50944	32378	
3694	0	43064	32558	
3695	0	33693	33468	
3696	0	26371	33416	
3697	0	23314	32960	
3698	0	28632	32771	
3699	0	29300	33518	
3700	0	28112	33557	
3701	0	24168	33586	
3702	0	23872	33159	
3703	0	27674	32774	
3704	0	31444	32434	
3705	0	31656	32487	
3706	0	28840	31765	
3707	0	27258	31842	
3708	0	33456	31773	
3709	0	35856	32015	
3710	0	33026	33031	
3711	0	31798	32768	
3712	0	34660	31933	
3713	0	38177	32661	
3714	0	37928	32608	
3715	0	38794	32652	
3716	0	40021	32263	
3717	0	38973	32152	
3718	0	42016	32051	
3719	0	36640	32738	
3720	0	22244	33746	
3721	0	9661	33044	
3722	0	6778	32484	
3723	0	9341	31256	
3724	0	14002	31452	
3725	0	19282	33336	
3726	0	32132	33736	
3727	0	42716	32688	
3728	0	46296	32040	
3729	0	47096	31476	
3730	0	48714	31602	
3731	0	46520	32707	
3732	0	43102	34455	
3733	0	41996	35888	
3734	0	37564	36048	
3735	0	36112	35078	
3736	0	39819	33309	
3737	0	32654	32211	
3738	0	24808	31776	
3739	0	17694	30422	
3740	0	15558	29349	
3741	0	12575	30008	
3742	0	24737	32292	
3743	0	37576	34018	
3744	0	43906	35182	
3745	0	45930	34533	
3746	0	42850	34951	
3747	0	39952	33714	
3748	0	36760	32326	
3749	0	32536	34448	
3750	0	25256	34320	
3751	0	18473	25752	
3752	0	18048	25682	
3753	0	22009	30396	
3754	0	32352	36032	
3755	0	41636	41488	
3756	0	42960	40684	
3757	0	46748	35658	
3758	0	56992	30844	
3759	0	56972	27800	
3760	0	52136	27712	
3761	0	31908	29805	
3762	0	16733	31576	
3763	0	5179	31000	
3764	0	4684	31027	
3765	0	20586	31186	
3766	0	26160	32254	
3767	0	29416	32316	
3768	0	31484	33168	
3769	0	39997	34426	
3770	0	45744	32980	
3771	0	43884	32544	
3772	0	43638	32364	
3773	0	38850	33457	
3774	0	30292	34224	
3775	0	22788	34398	
3776	0	23890	33470	
3777	0	26002	33817	
3778	0	24486	34059	
3779	0	24413	34034	
3780	0	29926	35458	
3781	0	33798	35538	
3782	0	36589	33886	
3783	0	36948	33031	
3784	0	34788	32530	
3785	0	31336	32214	
3786	0	30260	31111	
3787	0	31832	31179	
3788	0	35065	31708	
3789	0	47128	31328	
3790	0	53560	31784	
3791	0	45992	33014	
3792	0	40714	32142	
3793	0	38490	31980	
3794	0	30924	32616	
3795	0	24080	31632	
3796	0	23336	29667	
3797	0	22588	30154	
3798	0	19780	30658	
3799	0	19042	30859	
3800	0	28648	32420	
3801	0	36616	34117	
3802	0	38670	34258	
3803	0	41290	34538	
3804	0	38848	34657	
3805	0	36106	33436	
3806	0	42120	34080	
3807	0	44466	35070	
3808	0	40464	35546	
3809	0	30280	34634	
3810	0	20829	31870	
3811	0	19098	28928	
3812	0	14112	29098	
3813	0	7796	31452	
3814	0	8974	34124	
3815	0	11928	34867	
3816	0	14616	33019	
3817	0	28176	32444	
3818	0	39556	32138	
3819	0	48088	30480	
3820	0	55784	31996	
3821	0	58404	32784	
3822	0	54316	32825	
3823	0	46811	32257	
3824	0	40464	30334	
3825	0	36182	31260	
3826	0	33980	32038	
3827	0	32934	33653	
3828	0	33488	33519	
3829	0	35432	33187	
3830	0	37992	33808	
3831	0	42576	34122	
3832	0	42580	35750	
3833	0	33732	34784	
3834	0	25204	33866	
3835	0	18164	31556	
3836	0	19226	31108	
3837	0	38560	31748	
3838	0	46528	32532	
3839	0	43072	33768	
3840	0	36202	33482	
3841	0	27064	32778	
3842	0	21347	32120	
3843	0	21024	33658	
3844	0	24896	34422	
3845	0	25397	32284	
3846	0	24520	30672	
3847	0	24944	30847	
3848	0	27274	32472	
3849	0	39492	33402	
3850	0	40756	33248	
3851	0	34388	33328	
3852	0	27864	33578	
3853	0	27634	33716	
3854	0	31112	33272	
3855	0	32317	32966	
3856	0	30730	32693	
3857	0	28294	33016	
3858	0	29412	31060	
3859	0	30414	28861	
3860	0	29240	28236	
3861	0	28144	29464	
3862	0	29064	29571	
3863	0	29744	30154	
3864	0	32750	32993	
3865	0	37554	34916	
3866	0	39452	36704	
3867	0	41280	35846	
3868	0	42106	35216	
3869	0	41284	34990	
3870	0	40658	34550	
3871	0	38919	33630	
3872	0	36804	33826	
3873	0	33910	33308	
3874	0	29272	33132	
3875	0	25426	32920	
3876	0	24422	30903	
3877	0	26122	30598	
3878	0	35232	32904	
3879	0	38676	32876	
3880	0	37062	33423	
3881	0	36432	33518	
3882	0	36504	32591	
3883	0	36640	31604	
3884	0	38148	33151	
3885	0	42064	32126	
3886	0	46520	31516	
3887	0	41056	32948	
3888	0	31105	33168	
3889	0	23197	32690	
3890	0	21970	31700	
3891	0	24233	31366	
3892	0	24224	33408	
3893	0	28240	35248	
3894	0	30614	34024	
3895	0	28416	33098	
3896	0	30708	32870	
3897	0	36082	30920	
3898	0	37908	29801	
3899	0	37776	30082	
3900	0	37536	30904	
3901	0	35280	31820	
3902	0	30834	34404	
3903	0	23926	35504	
3904	0	21038	36032	
3905	0	20440	35649	
3906	0	24032	34446	
3907	0	30946	33378	
3908	0	44825	32024	
3909	0	53360	32556	
3910	0	52392	32808	
3911	0	45340	34738	
3912	0	41168	33659	
3913	0	37652	32109	
3914	0	27880	30160	
3915	0	19316	31969	
3916	0	15038	31816	
3917	0	14772	29600	
3918	0	14444	27224	
3919	0	11064	29576	
3920	0	15728	33337	
3921	0	26550	33616	
3922	0	35184	33464	
3923	0	41686	32356	
3924	0	46424	33944	
3925	0	46802	34504	
3926	0	46874	34972	
3927	0	48904	35724	
3928	0	42498	33656	
3929	0	33938	32014	
3930	0	32782	31688	
3931	0	30753	32466	
3932	0	32988	33041	
3933	0	31098	33894	
3934	0	28722	34563	
3935	0	30048	32728	
3936	0	31827	32506	
3937	0	34320	33299	
3938	0	33392	32730	
3939	0	28912	30537	
3940	0	24330	29394	
3941	0	22128	30831	
3942	0	21826	33242	
3943	0	24496	32227	
3944	0	30008	31560	
3945	0	35240	32348	
3946	0	38936	33880	
3947	0	41466	33858	
3948	0	45334	33522	
3949	0	42848	32219	
3950	0	38844	31618	
3951	0	35590	31094	
3952	0	35005	32242	
3953	0	35504	33776	
3954	0	37096	34277	
3955	0	37888	34040	
3956	0	38488	34571	
3957	0	36888	34099	
3958	0	34606	33988	
3959	0	30072	32836	
3960	0	23520	32056	
3961	0	18457	31562	
3962	0	17228	31355	
3963	0	17990	32600	
3964	0	23328	33385	
3965	0	32952	33760	
3966	0	40512	32862	
3967	0	41800	30760	
3968	0	39898	32012	
3969	0	35082	32403	
3970	0	35240	31982	
3971	0	41131	32300	
3972	0	39808	33824	
3973	0	34529	35412	
3974	0	29600	33937	
3975	0	25380	31914	
3976	0	23684	31776	
3977	0	24610	32005	
3978	0	28992	30398	
3979	0	31020	30858	
3980	0	32212	32148	
3981	0	39489	33004	
3982	0	50916	33424	
3983	0	51232	33094	
3984	0	47500	32862	
3985	0	37208	32064	
3986	0	27752	31626	
3987	0	20476	32256	
3988	0	16726	34792	
3989	0	16642	36908	
3990	0	18924	35698	
3991	0	22144	33160	
3992	0	28355	32228	
3993	0	30846	32189	
3994	0	34498	32336	
3995	0	36392	32441	
3996	0	37952	32240	
3997	0	38508	32996	
3998	0	36657	32867	
3999	0	34954	32199	
4000	0	32745	31903	
4001	0	30548	32402	
4002	0	29812	32775	
4003	0	32584	32248	
4004	0	39836	31496	
4005	0	45676	32840	
4006	0	51236	33556	
4007	0	53386	33746	
4008	0	49100	33868	
4009	0	37996	33986	
4010	0	27760	32828	
4011	0	19723	30428	
4012	0	16248	29888	
4013	0	17648	30916	
4014	0	22212	34676	
4015	0	26464	35360	
4016	0	27912	33388	
4017	0	28338	31874	
4018	0	29362	30957	
4019	0	26896	30478	
4020	0	25232	31873	
4021	0	27732	33936	
4022	0	31432	34286	
4023	0	34564	32068	
4024	0	37336	31272	
4025	0	42649	31450	
4026	0	46010	32822	
4027	0	47720	33213	
4028	0	44646	32592	
4029	0	48224	32646	
4030	0	45616	32808	
4031	0	37368	32902	
4032	0	30572	32660	
4033	0	31900	33174	
4034	0	30864	33728	
4035	0	28200	33664	
4036	0	18296	33096	
4037	0	13476	32304	
4038	0	17358	31040	
4039	0	17124	31540	
4040	0	20122	32916	
4041	0	23958	33181	
4042	0	27041	32692	
4043	0	31432	32586	
4044	0	33460	32720	
4045	0	36800	34090	
4046	0	41828	34032	
4047	0	42156	33564	
4048	0	42142	33053	
4049	0	39696	33047	
4050	0	42320	33369	
4051	0	40584	35090	
4052	0	34068	34012	
4053	0	27960	32186	
4054	0	26345	31821	
4055	0	28190	31980	
4056	0	29044	32387	
4057	0	29496	32243	
4058	0	31056	32443	
4059	0	35202	32068	
4060	0	38240	33044	
4061	0	37220	33364	
4062	0	35396	31758	
4063	0	32640	31488	
4064	0	32738	32608	
4065	0	35206	32983	
4066	0	37808	33706	
4067	0	41262	33864	
4068	0	39916	32514	
4069	0	36921	31346	
4070	0	36572	31266	
4071	0	30848	32518	
4072	0	25257	31397	
4073	0	26969	31383	
4074	0	29636	33832	
4075	0	32328	34032	
4076	0	37877	35162	
4077	0	38696	35184	
4078	0	34496	34204	
4079	0	26936	33082	
4080	0	27912	32384	
4081	0	33124	32854	
4082	0	29760	32984	
4083	0	26692	34357	
4084	0	23300	33248	
4085	0	23148	30215	
4086	0	23136	31510	
4087	0	23946	33472	
4088	0	26032	33393	
4089	0	34848	33640	
4090	0	41386	29952	
4091	0	41184	27460	
4092	0	42728	30224	
4093	0	48716	33728	
4094	0	55788	33100	
4095	0	53364	33154	
4096	0	43132	33252	
4097	0	32860	33944	
4098	0	23204	32414	
4099	0	13098	32896	
4100	0	7446	34096	
4101	0	7154	33674	
4102	0	11474	34728	
4103	0	15142	34704	
4104	0	23432	33442	
4105	0	32422	32872	
4106	0	44140	32364	
4107	0	61928	30902	
4108	0	63736	29818	
4109	0	60068	30400	
4110	0	45140	31530	
4111	0	25576	33752	
4112	0	12682	31888	
4113	0	5240	30762	
4114	0	8349	30690	
4115	0	15246	32149	
4116	0	23360	33768	
4117	0	39298	34500	
4118	0	46288	34996	
4119	0	46032	34519	
4120	0	44904	33154	
4121	0	41916	33918	
4122	0	38226	34409	
4123	0	35168	34606	
4124	0	41684	34272	
4125	0	44312	33328	
4126	0	40192	32920	
4127	0	32092	31792	
4128	0	26466	32159	
4129	0	23848	32538	
4130	0	22597	31896	
4131	0	20076	32819	
4132	0	25120	32545	
4133	0	30546	32626	
4134	0	31104	33058	
4135	0	30810	32677	
4136	0	32605	32414	
4137	0	38848	31996	
4138	0	48096	31260	
4139	0	46392	32866	
4140	0	40942	33002	
4141	0	38758	33654	
4142	0	39808	34328	
4143	0	47568	32568	
4144	0	44944	31208	
4145	0	31386	31109	
4146	0	18698	29020	
4147	0	12582	30548	
4148	0	12228	32576	
4149	0	15648	35309	
4150	0	20100	37070	
4151	0	24418	35580	
4152	0	23740	33000	
4153	0	23211	32132	
4154	0	23516	30862	
4155	0	24148	32775	
4156	0	27008	32180	
4157	0	33412	32204	
4158	0	46264	34088	
4159	0	53130	34576	
4160	0	57656	33287	
4161	0	61392	30344	
4162	0	58680	29120	
4163	0	55396	28705	
4164	0	52504	31672	
4165	0	36016	34272	
4166	0	22124	34904	
4167	0	19370	34962	
4168	0	26393	33560	
4169	0	17940	31496	
4170	0	12633	30376	
4171	0	9048	29412	
4172	0	9352	29714	
4173	0	13442	31790	
4174	0	19168	34962	
4175	0	25676	36805	
4176	0	30476	35042	
4177	0	31969	33318	
4178	0	32350	30396	
4179	0	33724	30696	
4180	0	37920	32266	
4181	0	41100	32696	
4182	0	44317	33440	
4183	0	45139	34146	
4184	0	45394	33644	
4185	0	49444	32284	
4186	0	57888	32412	
4187	0	57145	32237	
4188	0	54264	33204	
4189	0	51544	34130	
4190	0	32768	35308	
4191	0	13162	34432	
4192	0	6405	32664	
4193	0	7385	30472	
4194	0	12666	29252	
4195	0	18226	28657	
4196	0	25508	30678	
4197	0	33478	32009	
4198	0	33472	32080	
4199	0	29163	33506	
4200	0	25688	34344	
4201	0	25892	32192	
4202	0	27914	31162	
4203	0	30188	31366	
4204	0	31732	33617	
4205	0	35570	35178	
4206	0	38896	33132	
4207	0	43640	31516	
4208	0	47888	31136	
4209	0	46336	32802	
4210	0	45544	34742	
4211	0	43952	35724	
4212	0	42498	33880	
4213	0	39824	33776	
4214	0	38640	35306	
4215	0	36144	35264	
4216	0	29946	34560	
4217	0	24316	33538	
4218	0	25508	30234	
4219	0	24770	28852	
4220	0	29728	29191	
4221	0	34442	31416	
4222	0	27780	33160	
4223	0	18148	32336	
4224	0	14760	31560	
4225	0	17850	32352	
4226	0	33784	31660	
4227	0	38701	32079	
4228	0	33696	31844	
4229	0	26681	31634	
4230	0	23802	31428	
4231	0	23556	32853	
4232	0	24556	35910	
4233	0	30826	35208	
4234	0	33184	31520	
4235	0	32219	30547	
4236	0	34300	33528	
4237	0	41728	35872	
4238	0	45466	36520	
4239	0	45700	35024	
4240	0	45192	30552	
4241	0	43154	28290	
4242	0	46498	32276	
4243	0	51520	32292	
4244	0	50594	32321	
4245	0	40314	34150	
4246	0	29768	34408	
4247	0	20837	34950	
4248	0	18029	33410	
4249	0	18696	31520	
4250	0	25152	32580	
4251	0	33642	32030	
4252	0	34688	31943	
4253	0	27924	31913	
4254	0	20328	31994	
4255	0	17328	33018	
4256	0	18410	33998	
4257	0	24234	33883	
4258	0	31532	33396	
4259	0	39504	32801	
4260	0	44876	31256	
4261	0	49312	29384	
4262	0	46802	29216	
4263	0	36624	30156	
4264	0	27169	32388	
4265	0	21968	35544	
4266	0	24201	35975	
4267	0	29830	35234	
4268	0	31960	35298	
4269	0	33600	34363	
4270	0	34328	33044	
4271	0	32068	32404	
4272	0	30012	32642	
4273	0	28930	32257	
4274	0	29544	31842	
4275	0	42484	30108	
4276	0	51488	30474	
4277	0	47208	31696	
4278	0	38948	33540	
4279	0	33892	34648	
4280	0	31800	34758	
4281	0	30400	33359	
4282	0	28232	32874	
4283	0	23922	33483	
4284	0	21492	33396	
4285	0	21188	33120	
4286	0	21448	31186	
4287	0	25458	30672	
4288	0	32859	30504	
4289	0	36948	31781	
4290	0	37220	33970	
4291	0	37776	35616	
4292	0	46368	36248	
4293	0	55380	31178	
4294	0	54380	27232	
4295	0	49552	28154	
4296	0	44416	32903	
4297	0	40610	37916	
4298	0	36828	40838	
4299	0	22760	34770	
4300	0	12989	29664	
4301	0	31976	28893	
4302	0	42452	29908	
4303	0	41188	31650	
4304	0	36914	32101	
4305	0	25272	32256	
4306	0	13708	31798	
4307	0	15272	32263	
4308	0	15366	30596	
4309	0	11966	29612	
4310	0	8769	31744	
4311	0	10178	31486	
4312	0	16162	31542	
4313	0	26048	35045	
4314	0	35482	38648	
4315	0	41168	39282	
4316	0	42925	37519	
4317	0	42124	35010	
4318	0	40778	30583	
4319	0	34360	28735	
4320	0	32274	28957	
4321	0	32330	29463	
4322	0	33836	32150	
4323	0	34584	32804	
4324	0	37894	31820	
4325	0	40568	33580	
4326	0	41826	33411	
4327	0	43320	33708	
4328	0	43208	34752	
4329	0	38827	35812	
4330	0	36464	35534	
4331	0	31284	34502	
4332	0	27880	34740	
4333	0	28482	34995	
4334	0	31656	31209	
4335	0	36222	29056	
4336	0	38372	29498	
4337	0	45936	30440	
4338	0	45584	27692	
4339	0	38720	28104	
4340	0	27220	29584	
4341	0	15610	32124	
4342	0	12772	34472	
4343	0	13995	35884	
4344	0	13092	33754	
4345	0	12864	31368	
4346	0	20088	30962	
4347	0	32096	32750	
4348	0	49066	34456	
4349	0	58588	36256	
4350	0	62743	36178	
4351	0	57240	35431	
4352	0	47280	34496	
4353	0	38788	34069	
4354	0	29904	33641	
4355	0	24284	33604	
4356	0	25224	32908	
4357	0	32660	30604	
4358	0	40384	28915	
4359	0	42764	30712	
4360	0	43698	32064	
4361	0	50906	31398	
4362	0	50496	30244	
4363	0	39016	30624	
4364	0	19840	31944	
4365	0	3268	32628	
4366	0	0	34920	
4367	0	4186	34816	
4368	0	8938	30884	
4369	0	13069	29702	
4370	0	19086	32650	
4371	0	25564	38394	
4372	0	35576	43082	
4373	0	34960	40868	
4374	0	36320	36854	
4375	0	31186	33792	
4376	0	24536	32332	
4377	0	19940	31162	
4378	0	18978	31988	
4379	0	23986	29826	
4380	0	30336	26994	
4381	0	36144	25632	
4382	0	40120	26556	
4383	0	43156	28734	
4384	0	48498	29736	
4385	0	51492	31636	
4386	0	53504	32928	
4387	0	62896	33208	
4388	0	60488	34011	
4389	0	56976	33904	
4390	0	53856	32925	
4391	0	51160	32770	
4392	0	48848	32101	
4393	0	46832	31842	
4394	0	34350	34200	
4395	0	4348	37472	
4396	0	0	34364	
4397	0	0	30888	
4398	0	1568	29028	
4399	0	5896	28921	
4400	0	9489	30696	
4401	0	12532	30322	
4402	0	29674	32968	
4403	0	39440	34694	
4404	0	39108	37468	
4405	0	42684	37140	
4406	0	46087	36420	
4407	0	44378	34973	
4408	0	42122	32445	
4409	0	46850	33080	
4410	0	45284	32637	
4411	0	41628	30329	
4412	0	38290	30776	
4413	0	36704	31429	
4414	0	39148	30108	
4415	0	40538	30525	
4416	0	37608	33352	
4417	0	36470	35312	
4418	0	38310	35114	
4419	0	43480	34164	
4420	0	40632	32153	
4421	0	32584	32204	
4422	0	26312	33420	
4423	0	17670	36458	
4424	0	15085	37440	
4425	0	26064	29372	
4426	0	24653	25200	
4427	0	17842	26366	
4428	0	19188	31800	
4429	0	29896	38968	
4430	0	35616	40570	
4431	0	37724	37426	
4432	0	39570	33776	
4433	0	38424	30509	
4434	0	36364	32068	
4435	0	38892	32581	
4436	0	38562	32303	
4437	0	33820	33704	
4438	0	28828	34552	
4439	0	25620	32338	
4440	0	23140	31962	
4441	0	21184	32866	
4442	0	28520	34088	
4443	0	37036	31372	
4444	0	40960	28794	
4445	0	43360	29188	
4446	0	39188	29258	
4447	0	29196	30725	
4448	0	18208	33602	
4449	0	18912	33130	
4450	0	30680	33068	
4451	0	38644	32668	
4452	0	38724	31976	
4453	0	33016	32984	
4454	0	31448	33596	
4455	0	37976	33592	
4456	0	46906	31800	
4457	0	54832	29250	
4458	0	56640	30808	
4459	0	42873	36192	
4460	0	24308	37736	
4461	0	11909	34698	
4462	0	8369	35864	
4463	0	8832	35846	
4464	0	7562	30088	
4465	0	10634	28886	
4466	0	13956	31428	
4467	0	24824	34474	
4468	0	39200	33632	
4469	0	52668	33432	
4470	0	54356	34226	
4471	0	50712	33956	
4472	0	57680	32320	
4473	0	60088	34026	
4474	0	57050	32420	
4475	0	53976	29812	
4476	0	34512	26748	
4477	0	18593	24568	
4478	0	8806	23116	
4479	0	4736	25304	
4480	0	17896	32440	
4481	0	25757	39058	
4482	0	24648	41991	
4483	0	20608	34348	
4484	0	18718	23088	
4485	0	21078	29692	
4486	0	31688	43618	
4487	0	43080	48972	
4488	0	44334	45184	
4489	0	39108	33940	
4490	0	34296	22160	
4491	0	31064	26496	
4492	0	26162	33580	
4493	0	26500	31780	
4494	0	35612	29604	
4495	0	42436	28590	
4496	0	44872	28896	
4497	0	44280	31708	
4498	0	43225	35832	
4499	0	43200	38389	
4500	0	41280	36274	
4501	0	41240	30456	
4502	0	40978	28258	
4503	0	46868	35336	
4504	0	45512	45584	
4505	0	40620	44812	
4506	0	36120	34930	
4507	0	42650	32408	
4508	0	46632	30880	
4509	0	37682	32562	
4510	0	28852	28868	
4511	0	15105	18460	
4512	0	10997	19437	
4513	0	9596	32860	
4514	0	8268	42416	
4515	0	7629	41928	
4516	0	7272	33100	
4517	0	9299	25280	
4518	0	12252	25368	
4519	0	14880	29618	
4520	0	17166	28807	
4521	0	19128	26777	
4522	0	20845	32072	
4523	0	47552	31520	
4524	0	62060	24373	
4525	0	65474	24480	
4526	0	65464	32832	
4527	0	63776	39020	
4528	0	59620	41272	
4529	0	56084	40616	
4530	0	53072	39809	
4531	0	29142	35860	
4532	0	17376	34962	
4533	0	8969	36178	
4534	0	3491	38298	
4535	0	3881	31388	
4536	0	7524	29664	
4537	0	16520	31740	
4538	0	33928	35800	
4539	0	46472	38880	
4540	0	60592	32984	
4541	0	63144	24954	
4542	0	59640	27368	
4543	0	56144	30726	
4544	0	53124	34426	
4545	0	35552	33408	
4546	0	20322	31180	
4547	0	8226	33484	
4548	0	3497	36616	
4549	0	5270	37402	
4550	0	10278	36427	
4551	0	22968	36328	
4552	0	47176	32680	
4553	0	53128	28318	
4554	0	46944	26444	
4555	0	38580	24816	
4556	0	37532	23306	
4557	0	32952	23932	
4558	0	26404	31808	
4559	0	22170	41558	
4560	0	23368	45316	
4561	0	27532	46175	
4562	0	28842	37984	
4563	0	28458	30708	
4564	0	29606	30496	
4565	0	30016	28728	
4566	0	26340	26261	
4567	0	27464	27368	
4568	0	38656	26796	
4569	0	57612	23740	
4570	0	61464	28537	
4571	0	58344	36105	
4572	0	55044	41616	
4573	0	52188	41560	
4574	0	49720	33892	
4575	0	22792	29458	
4576	0	2362	25866	
4577	0	0	26732	
4578	0	0	27570	
4579	0	5175	32156	
4580	0	8900	35760	
4581	0	12024	37280	
4582	0	14704	36828	
4583	0	17014	35528	
4584	0	64596	40672	
4585	0	65464	41124	
4586	0	65480	39520	
4587	0	61680	33760	
4588	0	45754	28137	
4589	0	29114	28688	
4590	0	18993	29876	
4591	0	12682	28588	
4592	0	14562	29846	
4593	0	23706	32792	
4594	0	28192	34631	
4595	0	44644	31736	
4596	0	58524	34348	
4597	0	59432	34642	
4598	0	56376	31346	
4599	0	48540	33600	
4600	0	35234	35466	
4601	0	28256	35595	
4602	0	28794	33432	
4603	0	28701	25176	
4604	0	30464	22104	
4605	0	31276	29040	
4606	0	22026	37112	
4607	0	14914	37298	
4608	0	9374	22362	
4609	0	5221	18700	
4610	0	7264	30936	
4611	0	10526	40004	
4612	0	13396	41580	
4613	0	19996	42344	
4614	0	54832	39641	
4615	0	65456	34024	
4616	0	65474	34080	
4617	0	61816	35621	
4618	0	57892	35144	
4619	0	54592	31353	
4620	0	51800	27728	
4621	0	37090	29940	
4622	0	11528	26192	
4623	0	643	28944	
4624	0	2999	26525	
4625	0	11485	35673	
4626	0	21284	37588	
4627	0	23092	37792	
4628	0	22213	35790	
4629	0	19380	34300	
4630	0	18386	33328	
4631	0	23085	29702	
4632	0	25290	26526	
4633	0	31808	28681	
4634	0	42776	31834	
4635	0	53752	36266	
4636	0	57720	31616	
4637	0	63664	33152	
4638	0	60800	33572	
4639	0	45724	37592	
4640	0	39328	33057	
4641	0	34048	24384	
4642	0	26052	25850	
4643	0	26468	33640	
4644	0	21418	40992	
4645	0	15160	38312	
4646	0	11775	32024	
4647	0	12440	28209	
4648	0	10321	25980	
4649	0	12096	33656	
4650	0	14687	40180	
4651	0	27984	41044	
4652	0	38538	38646	
4653	0	48252	29358	
4654	0	60368	24933	
4655	0	65472	25273	
4656	0	61100	31872	
4657	0	55644	36077	
4658	0	47066	33210	
4659	0	42000	36242	
4660	0	43688	38050	
4661	0	37676	35180	
4662	0	33202	33504	
4663	0	25588	28176	
4664	0	29314	24259	
4665	0	24421	31724	
4666	0	15790	39404	
4667	0	8399	43912	
4668	0	3824	41904	
4669	0	6627	38554	
4670	0	10017	30770	
4671	0	12988	22906	
4672	0	19952	24034	
4673	0	28836	28948	
4674	0	38372	27874	
4675	0	56336	28286	
4676	0	65456	29576	
4677	0	65472	33216	
4678	0	61446	31753	
4679	0	57580	31601	
4680	0	45736	36464	
4681	0	31555	35252	
4682	0	31212	31784	
4683	0	31192	28500	
4684	0	30001	27796	
4685	0	34706	27832	
4686	0	32112	38030	
4687	0	25182	47304	
4688	0	18455	49528	
4689	0	23400	35074	
4690	0	24730	27041	
4691	0	19956	24632	
4692	0	10376	31368	
4693	0	7197	35332	
4694	0	10114	23716	
4695	0	13021	24408	
4696	0	15564	40900	
4697	0	19504	54292	
4698	0	49618	31256	
4699	0	65456	8952	
4700	0	65464	23028	
4701	0	64458	37409	
4702	0	60152	30090	
4703	0	56504	28356	
4704	0	53416	40578	
4705	0	38616	44064	
4706	0	25120	32410	
4707	0	18556	34508	
4708	0	27852	36752	
4709	0	27584	32374	
4710	0	18438	28481	
4711	0	10032	34252	
4712	0	3902	32324	
4713	0	6339	30121	
4714	0	15875	34556	
4715	0	25004	33584	
4716	0	34558	30188	
4717	0	36778	28440	
4718	0	38312	32424	
4719	0	40112	35684	
4720	0	41544	35512	
4721	0	51160	31168	
4722	0	61400	29112	
4723	0	59284	32320	
4724	0	55968	36253	
4725	0	38288	41052	
4726	0	32576	36968	
4727	0	24528	25172	
4728	0	15608	18904	
4729	0	9468	20324	
4730	0	14038	26601	
4731	0	13564	24204	
4732	0	8729	37755	
4733	0	10796	46018	
4734	0	17722	48924	
4735	0	26892	32140	
4736	0	32016	21217	
4737	0	36656	27254	
4738	0	44768	38432	
4739	0	54928	45564	
4740	0	62265	44492	
4741	0	63396	39192	
4742	0	59748	42944	
4743	0	56208	45241	
4744	0	53176	26140	
4745	0	44893	21682	
4746	0	35322	30196	
4747	0	27764	26208	
4748	0	13144	19880	
4749	0	1750	24667	
4750	0	0	18106	
4751	0	3658	26336	
4752	0	7608	39384	
4753	0	10928	44832	
4754	0	13764	39040	
4755	0	16201	30084	
4756	0	34690	24736	
4757	0	48204	26232	
4758	0	56784	36892	
4759	0	56744	46780	
4760	0	57756	42820	
4761	0	61730	33056	
4762	0	58928	34424	
4763	0	55616	38108	
4764	0	52684	27528	
4765	0	50160	22052	
4766	0	47066	32340	
4767	0	18586	36764	
4768	0	5662	26122	
4769	0	2982	26996	
4770	0	11554	28984	
4771	0	16888	26356	
4772	0	14110	26568	
4773	0	10842	31442	
4774	0	14852	43728	
4775	0	25474	49448	
4776	0	40548	39368	
4777	0	46848	32934	
4778	0	49516	35408	
4779	0	55032	32732	
4780	0	49600	30137	
4781	0	40170	24908	
4782	0	37168	26634	
4783	0	34840	36490	
4784	0	30952	41616	
4785	0	30280	40512	
4786	0	33928	41072	
4787	0	34836	34792	
4788	0	33104	20066	
4789	0	28408	10020	
4790	0	25107	18226	
4791	0	24184	30692	
4792	0	19728	34636	
4793	0	18489	35012	
4794	0	17904	44632	
4795	0	15680	42968	
4796	0	21170	30596	
4797	0	33972	31800	
4798	0	45696	40816	
4799	0	48530	33564	
4800	0	42208	24008	
4801	0	35024	25332	
4802	0	27746	32316	
4803	0	24605	35500	
4804	0	26507	37179	
4805	0	33420	36648	
4806	0	42058	33760	
4807	0	52832	34468	
4808	0	58656	26748	
4809	0	58000	29752	
4810	0	52892	32892	
4811	0	38680	31384	
4812	0	24792	36632	
4813	0	13612	37960	
4814	0	7678	28036	
4815	0	6857	30909	
4816	0	7271	40080	
4817	0	9444	40760	
4818	0	12408	32572	
4819	0	18680	27832	
4820	0	39132	37372	
4821	0	54104	32568	
4822	0	64320	35026	
4823	0	63232	33174	
4824	0	57748	29077	
4825	0	50520	27736	
4826	0	43624	24954	
4827	0	38344	22628	
4828	0	36040	27176	
4829	0	35384	29584	
4830	0	31865	36316	
4831	0	31754	36222	
4832	0	31116	37764	
4833	0	32536	36504	
4834	0	29627	38344	
4835	0	24685	26492	
4836	0	15035	30784	
4837	0	4342	42528	
4838	0	4489	48704	
4839	0	8068	38728	
4840	0	11304	29020	
4841	0	14092	28968	
4842	0	16484	36508	
4843	0	47344	30952	
4844	0	63944	22718	
4845	0	65472	28236	
4846	0	64384	33440	
4847	0	60084	21856	
4848	0	56450	23433	
4849	0	53388	27894	
4850	0	39312	35040	
4851	0	37424	40256	
4852	0	34296	39792	
4853	0	25817	35024	
4854	0	10052	32448	
4855	0	605	34600	
4856	0	3801	35813	
4857	0	12073	35811	
4858	0	17236	26568	
4859	0	19424	20006	
4860	0	20338	27954	
4861	0	25178	44098	
4862	0	32072	38080	
4863	0	38906	30408	
4864	0	45618	36880	
4865	0	52720	37340	
4866	0	58792	29609	
4867	0	57060	36064	
4868	0	47884	33136	
4869	0	34236	26768	
4870	0	24261	32808	
4871	0	21776	38852	
4872	0	20768	32096	
4873	0	23266	27345	
4874	0	29816	37138	
4875	0	37328	40504	
4876	0	39146	26464	
4877	0	31954	25588	
4878	0	21657	29196	
4879	0	12219	30548	
4880	0	8881	34488	
4881	0	11542	32562	
4882	0	16512	27445	
4883	0	24670	30724	
4884	0	32400	35708	
4885	0	43004	34712	
4886	0	55544	35760	
4887	0	64744	38952	
4888	0	65472	36336	
4889	0	61058	28768	
4890	0	57296	28960	
4891	0	54104	28032	
4892	0	51384	31208	
4893	0	49026	34364	
4894	0	34400	39212	
4895	0	23908	34761	
4896	0	14011	32248	
4897	0	6192	39161	
4898	0	947	38772	
4899	0	1317	37920	
4900	0	5410	25652	
4901	0	9062	22664	
4902	0	24008	33722	
4903	0	29060	36814	
4904	0	33572	32564	
4905	0	37512	33016	
4906	0	40940	32912	
4907	0	46426	31052	
4908	0	52384	30450	
4909	0	52488	28519	
4910	0	49234	27585	
4911	0	46672	33032	
4912	0	47354	30888	
4913	0	40338	27756	
4914	0	29406	43588	
4915	0	22533	45664	
4916	0	20562	27662	
4917	0	18802	31760	
4918	0	17544	34502	
4919	0	18896	24458	
4920	0	24172	31216	
4921	0	33880	40730	
4922	0	40146	32172	
4923	0	43768	24082	
4924	0	44200	28012	
4925	0	44592	33256	
4926	0	42096	35428	
4927	0	35488	39005	
4928	0	28052	35076	
4929	0	21634	24624	
4930	0	19499	23104	
4931	0	19908	23941	
4932	0	22080	30536	
4933	0	25168	41474	
4934	0	30550	47828	
4935	0	37288	40096	
4936	0	46284	36824	
4937	0	52640	42020	
4938	0	48720	37962	
4939	0	38304	26258	
4940	0	29732	33640	
4941	0	29904	37435	
4942	0	33936	22144	
4943	0	34739	18112	
4944	0	36432	28432	
4945	0	41780	34856	
4946	0	46672	37100	
4947	0	45044	31502	
4948	0	35524	31680	
4949	0	25816	35752	
4950	0	22169	36682	
4951	0	19370	34764	
4952	0	14068	34012	
4953	0	12086	29518	
4954	0	10334	36092	
4955	0	10210	35940	
4956	0	16749	30265	
4957	0	27358	16989	
4958	0	36104	29592	
4959	0	42968	43032	
4960	0	45104	31104	
4961	0	43064	24406	
4962	0	42600	29157	
4963	0	40168	24988	
4964	0	36288	36092	
4965	0	38828	42438	
4966	0	42336	39520	
4967	0	47648	38904	
4968	0	52680	45112	
4969	0	55272	42528	
4970	0	53081	30816	
4971	0	50592	17720	
4972	0	48348	27052	
4973	0	19512	40748	
4974	0	0	32708	
4975	0	0	28128	
4976	0	1374	37528	
4977	0	5264	31064	
4978	0	8965	18491	
4979	0	12081	23600	
4980	0	40066	32772	
4981	0	54338	34980	
4982	0	61664	35017	
4983	0	62276	35586	
4984	0	59076	38400	
4985	0	49266	39432	
4986	0	35712	28292	
4987	0	27010	18194	
4988	0	20704	19326	
4989	0	14890	23356	
4990	0	10041	25048	
4991	0	12192	39524	
4992	0	16436	52600	
4993	0	26262	47196	
4994	0	36368	41162	
4995	0	42180	46578	
4996	0	41392	41984	
4997	0	37280	34785	
4998	0	33336	16849	
4999	0	32744	16886	
5000	0	38376	27512	
5001	0	46776	36057	
5002	0	51920	36546	
5003	0	53080	34498	
5004	0	48829	28836	
5005	0	37538	25846	
5006	0	24554	35476	
5007	0	14844	46884	
5008	0	13422	49031	
5009	0	18312	36394	
5010	0	23320	21876	
5011	0	32858	17936	
5012	0	38674	9804	
5013	0	37080	18216	
5014	0	34784	44464	
5015	0	34808	45866	
5016	0	32540	35780	
5017	0	28876	30372	
5018	0	28624	26320	
5019	0	22705	28928	
5020	0	21321	35730	
5021	0	23944	37880	
5022	0	22796	34162	
5023	0	22630	31584	
5024	0	25072	27764	
5025	0	30329	25068	
5026	0	40688	32032	
5027	0	51416	41824	
5028	0	61210	39160	
5029	0	61096	37960	
5030	0	57664	41792	
5031	0	54084	41685	
5032	0	30448	35928	
5033	0	17858	36850	
5034	0	9412	33802	
5035	0	7523	23344	
5036	0	18284	18876	
5037	0	31648	25808	
5038	0	43684	29548	
5039	0	52368	32612	
5040	0	53464	33692	
5041	0	49876	33872	
5042	0	40906	36372	
5043	0	28296	35792	
5044	0	17088	27450	
5045	0	10432	25290	
5046	0	9416	36772	
5047	0	12487	42924	
5048	0	14230	31676	
5049	0	13744	27232	
5050	0	20448	30288	
5051	0	28488	31625	
5052	0	36568	31554	
5053	0	47224	34348	
5054	0	58820	34540	
5055	0	64096	40328	
5056	0	60952	41686	
5057	0	57272	31194	
5058	0	38018	28472	
5059	0	18248	35768	
5060	0	6009	33152	
5061	0	4193	28792	
5062	0	11636	27716	
5063	0	23444	27580	
5064	0	31768	31664	
5065	0	37443	34260	
5066	0	40856	31088	
5067	0	45272	33828	
5068	0	47788	37972	
5069	0	45644	34290	
5070	0	42912	32219	
5071	0	38344	31818	
5072	0	31892	28874	
5073	0	27896	23171	
5074	0	29696	26891	
5075	0	32270	33208	
5076	0	32130	35450	
5077	0	30618	29720	
5078	0	28188	25150	
5079	0	24754	33498	
5080	0	24040	37895	
5081	0	24628	36359	
5082	0	30004	38827	
5083	0	38240	37535	
5084	0	41978	37972	
5085	0	40925	36447	
5086	0	38348	34692	
5087	0	36268	32530	
5088	0	32442	32352	
5089	0	30840	30352	
5090	0	32464	26702	
5091	0	36472	30640	
5092	0	38192	33005	
5093	0	35552	34932	
5094	0	33332	31600	
5095	0	31640	32906	
5096	0	27824	36358	
5097	0	22846	35076	
5098	0	22872	30976	
5099	0	23412	34249	
5100	0	22432	36622	
5101	0	26974	32880	
5102	0	35248	31776	
5103	0	44106	32224	
5104	0	49832	32176	
5105	0	48476	31474	
5106	0	39620	32244	
5107	0	28104	30768	
5108	0	17698	32164	
5109	0	15308	32420	
5110	0	19720	28280	
5111	0	27274	27880	
5112	0	35074	33112	
5113	0	41968	39416	
5114	0	44312	35722	
5115	0	42860	29735	
5116	0	39786	34858	
5117	0	32768	40596	
5118	0	25360	28952	
5119	0	22750	20008	
5120	0	21869	23260	
5121	0	23928	31416	
5122	0	29500	37930	
5123	0	34838	39916	
5124	0	39736	34698	
5125	0	42284	30144	
5126	0	40418	32144	
5127	0	34808	37078	
5128	0	32104	34938	
5129	0	32116	37282	
5130	0	31573	36946	
5131	0	32560	35482	
5132	0	34696	31654	
5133	0	36458	31098	
5134	0	38090	32438	
5135	0	38224	30785	
5136	0	35180	29301	
5137	0	30492	31490	
5138	0	27650	31840	
5139	0	26298	31922	
5140	0	22765	32002	
5141	0	20428	31489	
5142	0	24840	31997	
5143	0	31084	32880	
5144	0	35936	32308	
5145	0	37913	32576	
5146	0	39512	33744	
5147	0	40064	33489	
5148	0	38424	33728	
5149	0	36282	34265	
5150	0	34624	35335	
5151	0	35868	32744	
5152	0	38508	28988	
5153	0	41577	29028	
5154	0	41816	30031	
5155	0	38784	30958	
5156	0	32196	31212	
5157	0	26480	32684	
5158	0	25860	33685	
5159	0	25840	32658	
5160	0	26372	31768	
5161	0	26392	36012	
5162	0	31016	36512	
5163	0	39264	34088	
5164	0	44044	32933	
5165	0	46252	32845	
5166	0	46656	30586	
5167	0	40528	34450	
5168	0	29252	38540	
5169	0	21627	37304	
5170	0	19210	36591	
5171	0	20500	31773	
5172	0	17976	30818	
5173	0	16970	29253	
5174	0	21066	24890	
5175	0	26848	28044	
5176	0	32324	30512	
5177	0	37568	30894	
5178	0	39810	34382	
5179	0	40664	35737	
5180	0	39977	35194	
5181	0	36858	35994	
5182	0	33924	33686	
5183	0	33387	32379	
5184	0	36096	31744	
5185	0	36832	30865	
5186	0	33201	30958	
5187	0	27913	31508	
5188	0	27033	35059	
5189	0	28368	34552	
5190	0	30422	34068	
5191	0	32560	36167	
5192	0	34540	33768	
5193	0	36020	31624	
5194	0	31284	35504	
5195	0	27008	33221	
5196	0	29792	28992	
5197	0	33148	27472	
5198	0	36684	29201	
5199	0	41956	34798	
5200	0	45434	34128	
5201	0	46136	36171	
5202	0	38372	34034	
5203	0	24380	32340	
5204	0	17737	31936	
5205	0	20132	32658	
5206	0	25834	29838	
5207	0	27936	30575	
5208	0	33196	29312	
5209	0	38960	28528	
5210	0	39936	31068	
5211	0	36464	34128	
5212	0	33554	34248	
5213	0	31252	38372	
5214	0	25860	40544	
5215	0	23084	34880	
5216	0	25344	30264	
5217	0	31072	33568	
5218	0	37164	31890	
5219	0	41512	27176	
5220	0	44416	29812	
5221	0	47168	30272	
5222	0	50336	29464	
5223	0	50984	32179	
5224	0	45800	37935	
5225	0	39524	37476	
5226	0	24626	33712	
5227	0	12714	32596	
5228	0	15376	33735	
5229	0	21549	34638	
5230	0	28209	34916	
5231	0	33452	31488	
5232	0	37722	31430	
5233	0	38266	30163	
5234	0	31482	28384	
5235	0	22670	30296	
5236	0	18161	33362	
5237	0	24841	32757	
5238	0	34722	32222	
5239	0	39504	33452	
5240	0	37568	34656	
5241	0	33665	36570	
5242	0	31225	33764	
5243	0	30160	31865	
5244	0	31546	32845	
5245	0	31168	33878	
5246	0	27621	34415	
5247	0	23237	32592	
5248	0	24340	31524	
5249	0	31746	30360	
5250	0	38093	31460	
5251	0	38786	32485	
5252	0	37402	32475	
5253	0	37048	33058	
5254	0	35629	36064	
5255	0	31704	35242	
5256	0	28520	35984	
5257	0	27598	35934	
5258	0	30018	35114	
5259	0	33510	31620	
5260	0	40584	25950	
5261	0	46836	22992	
5262	0	48164	26988	
5263	0	45434	29974	
5264	0	43490	32379	
5265	0	41793	35888	
5266	0	40336	38826	
5267	0	43192	34440	
5268	0	42032	27594	
5269	0	32560	28180	
5270	0	16898	32248	
5271	0	3433	32140	
5272	0	667	36944	
5273	0	6595	36762	
5274	0	13470	34332	
5275	0	23256	33794	
5276	0	35260	32154	
5277	0	43564	30340	
5278	0	46522	31453	
5279	0	43624	32604	
5280	0	36266	33776	
5281	0	28196	33048	
5282	0	24969	36032	
5283	0	30104	37164	
5284	0	37634	32560	
5285	0	41641	34021	
5286	0	44224	35118	
5287	0	44793	32964	
5288	0	48672	28064	
5289	0	50348	31160	
5290	0	44466	33938	
5291	0	35194	35436	
5292	0	24664	32692	
5293	0	13260	29840	
5294	0	10723	29932	
5295	0	16924	31726	
5296	0	22594	33212	
5297	0	29076	34496	
5298	0	35750	33418	
5299	0	35062	31966	
5300	0	32746	30820	
5301	0	32320	28873	
5302	0	36376	31412	
5303	0	41024	34698	
5304	0	41330	36200	
5305	0	37028	33775	
5306	0	33877	32903	
5307	0	31180	31694	
5308	0	25288	31614	
5309	0	24326	31610	
5310	0	29568	31644	
5311	0	35200	32044	
5312	0	37172	31284	
5313	0	37992	31424	
5314	0	36084	33464	
5315	0	34496	35705	
5316	0	32144	36667	
5317	0	30472	37600	
5318	0	30498	34535	
5319	0	31674	33252	
5320	0	35822	28576	
5321	0	35612	29064	
5322	0	29684	31778	
5323	0	29842	32530	
5324	0	32420	33488	
5325	0	35842	35156	
5326	0	40816	34472	
5327	0	44464	30724	
5328	0	42941	29866	
5329	0	37978	32522	
5330	0	33160	32216	
5331	0	29692	31606	
5332	0	32044	34426	
5333	0	37408	36756	
5334	0	38728	31796	
5335	0	41140	29810	
5336	0	40330	30706	
5337	0	29586	31862	
5338	0	14842	32744	
5339	0	2557	33210	
5340	0	3428	33976	
5341	0	7253	36672	
5342	0	10622	33483	
5343	0	18618	26208	
5344	0	39904	28836	
5345	0	48008	36624	
5346	0	51784	44032	
5347	0	54584	42584	
5348	0	54472	36860	
5349	0	50116	30553	
5350	0	44080	20140	
5351	0	33578	23640	
5352	0	23146	29484	
5353	0	19473	31332	
5354	0	20833	32964	
5355	0	21220	28746	
5356	0	22676	28980	
5357	0	29234	33188	
5358	0	37092	33497	
5359	0	42420	35280	
5360	0	43616	37252	
5361	0	40592	35876	
5362	0	34776	30820	
5363	0	28316	29618	
5364	0	24224	31392	
5365	0	30240	34068	
5366	0	40824	33856	
5367	0	46520	34938	
5368	0	48528	34764	
5369	0	44408	35035	
5370	0	36306	33748	
5371	0	22464	34624	
5372	0	13788	33241	
5373	0	15016	34284	
5374	0	14282	34842	
5375	0	17452	33946	
5376	0	22393	30304	
5377	0	30034	29904	
5378	0	38892	31788	
5379	0	44644	32699	
5380	0	45344	31248	
5381	0	43548	31380	
5382	0	36736	32124	
5383	0	27224	31306	
5384	0	27004	33172	
5385	0	30984	33344	
5386	0	35280	32403	
5387	0	37184	30136	
5388	0	37023	31508	
5389	0	35820	32182	
5390	0	33716	34882	
5391	0	33484	35542	
5392	0	35440	35704	
5393	0	36728	34486	
5394	0	35648	32920	
5395	0	36818	32178	
5396	0	37956	32290	
5397	0	37210	33620	
5398	0	35992	34022	
5399	0	36410	34214	
5400	0	35196	34767	
5401	0	35256	33089	
5402	0	39978	31840	
5403	0	39684	26418	
5404	0	32460	26764	
5405	0	24773	32534	
5406	0	18384	35072	
5407	0	11890	37042	
5408	0	13073	40219	
5409	0	22535	35344	
5410	0	31621	34500	
5411	0	34944	32688	
5412	0	33033	23344	
5413	0	33231	20463	
5414	0	34704	28306	
5415	0	33908	32502	
5416	0	39980	32920	
5417	0	48148	35360	
5418	0	54248	33284	
5419	0	55016	30160	
5420	0	50183	31728	
5421	0	41016	32948	
5422	0	27392	31626	
5423	0	9890	34168	
5424	0	0	33770	
5425	0	2782	34808	
5426	0	6843	38624	
5427	0	22880	36512	
5428	0	35536	35908	
5429	0	39664	35556	
5430	0	39488	34337	
5431	0	35152	31366	
5432	0	29928	30150	
5433	0	29598	29906	
5434	0	29216	30862	
5435	0	32960	30192	
5436	0	37764	31386	
5437	0	41809	34674	
5438	0	43844	35033	
5439	0	43460	30788	
5440	0	42464	29373	
5441	0	41380	30864	
5442	0	34871	32647	
5443	0	28432	34052	
5444	0	26288	35891	
5445	0	34280	37974	
5446	0	48692	36512	
5447	0	56816	34416	
5448	0	55080	33092	
5449	0	52384	32931	
5450	0	49917	32242	
5451	0	24320	29524	
5452	0	0	26440	
5453	0	0	30224	
5454	0	0	33296	
5455	0	5224	33218	
5456	0	8930	31964	
5457	0	28016	31746	
5458	0	36312	31908	
5459	0	38850	30706	
5460	0	41232	29722	
5461	0	42882	33011	
5462	0	43706	37452	
5463	0	43676	37476	
5464	0	42200	34182	
5465	0	40025	31974	
5466	0	37764	27276	
5467	0	35360	22757	
5468	0	33436	31860	
5469	0	32092	40216	
5470	0	28226	37909	
5471	0	26090	37028	
5472	0	29004	38479	
5473	0	27954	33459	
5474	0	30366	33983	
5475	0	34469	33240	
5476	0	42796	26346	
5477	0	49000	21053	
5478	0	54080	25888	
5479	0	54905	35128	
5480	0	48868	42184	
5481	0	33732	38780	
5482	0	16578	29648	
5483	0	5724	32904	
5484	0	732	32992	
5485	0	4634	26882	
5486	0	19448	33248	
5487	0	31612	42874	
5488	0	39034	40776	
5489	0	40504	32944	
5490	0	37833	29768	
5491	0	33433	31102	
5492	0	31108	29810	
5493	0	31093	28141	
5494	0	28538	26620	
5495	0	29212	25823	
5496	0	30176	27997	
5497	0	32252	31103	
5498	0	37546	33136	
5499	0	48684	33536	
5500	0	57628	32716	
5501	0	58362	32706	
5502	0	55466	34032	
5503	0	52600	35803	
5504	0	50075	34616	
5505	0	47900	35982	
5506	0	25704	33128	
5507	0	6238	29340	
5508	0	0	32348	
5509	0	0	33348	
5510	0	2922	32241	
5511	0	6976	34048	
5512	0	10476	38860	
5513	0	13276	39216	
5514	0	15816	35940	
5515	0	31640	32080	
5516	0	40612	31856	
5517	0	46724	31557	
5518	0	47544	31344	
5519	0	47280	31428	
5520	0	48868	31064	
5521	0	47954	31666	
5522	0	44008	32899	
5523	0	37974	33908	
5524	0	36028	32922	
5525	0	37336	32028	
5526	0	38396	31975	
5527	0	37776	32376	
5528	0	37012	33826	
5529	0	38420	34166	
5530	0	40042	33949	
5531	0	39192	32673	
5532	0	35064	31300	
5533	0	28087	30816	
5534	0	22000	30589	
5535	0	22400	29692	
5536	0	24080	29544	
5537	0	24632	30704	
5538	0	26208	33287	
5539	0	33436	34836	
5540	0	40936	34593	
5541	0	43504	33643	
5542	0	42588	32912	
5543	0	40868	32459	
5544	0	36208	31808	
5545	0	26516	32037	
5546	0	16554	33368	
5547	0	12358	33756	
5548	0	11973	35325	
5549	0	17597	34216	
5550	0	26056	32696	
5551	0	31606	31508	
5552	0	34264	33422	
5553	0	35208	36016	
5554	0	37536	35804	
5555	0	40672	29948	
5556	0	42000	29229	
5557	0	40980	30371	
5558	0	39346	29814	
5559	0	37157	29493	
5560	0	38128	30702	
5561	0	40856	33967	
5562	0	45093	32976	
5563	0	48168	33768	
5564	0	49160	32690	
5565	0	47230	31674	
5566	0	43200	33467	
5567	0	38608	36136	
5568	0	31788	37510	
5569	0	19864	36704	
5570	0	10325	35676	
5571	0	7466	39346	
5572	0	11266	37308	
5573	0	16078	27390	
5574	0	24224	24746	
5575	0	34112	27740	
5576	0	43770	30700	
5577	0	49432	34058	
5578	0	49520	34020	
5579	0	46032	29838	
5580	0	40292	30828	
5581	0	31020	34208	
5582	0	21820	33309	
5583	0	15521	31232	
5584	0	10886	30777	
5585	0	17994	32484	
5586	0	28600	33848	
5587	0	38720	32836	
5588	0	46736	30600	
5589	0	49240	30034	
5590	0	48484	31665	
5591	0	46640	33008	
5592	0	44444	34546	
5593	0	36096	34924	
5594	0	25858	35436	
5595	0	17898	34464	
5596	0	13529	31845	
5597	0	11979	31240	
5598	0	8368	32108	
5599	0	15442	33132	
5600	0	23196	34616	
5601	0	31256	33692	
5602	0	36610	33054	
5603	0	41680	32386	
5604	0	44754	31054	
5605	0	44168	31800	
5606	0	41061	33890	
5607	0	36314	33987	
5608	0	33936	33411	
5609	0	31590	32479	
5610	0	30112	31954	
5611	0	30040	31327	
5612	0	31529	31762	
5613	0	35672	34391	
5614	0	38984	34766	
5615	0	40314	33055	
5616	0	40086	32498	
5617	0	40408	32740	
5618	0	42184	31914	
5619	0	44202	31476	
5620	0	44548	31990	
5621	0	41688	32786	
5622	0	37348	31972	
5623	0	32392	33746	
5624	0	25480	33904	
5625	0	17546	32809	
5626	0	14480	33700	
5627	0	19408	33769	
5628	0	28000	34030	
5629	0	35173	34304	
5630	0	39136	34252	
5631	0	41418	31886	
5632	0	41636	30788	
5633	0	38062	30571	
5634	0	32151	29923	
5635	0	27092	32061	
5636	0	24752	32912	
5637	0	22172	30160	
5638	0	19877	29818	
5639	0	20821	30293	
5640	0	25058	32321	
5641	0	31898	35112	
5642	0	38256	35420	
5643	0	41052	34926	
5644	0	41264	35253	
5645	0	39593	35002	
5646	0	38224	33558	
5647	0	35661	34953	
5648	0	34200	34926	
5649	0	35264	34999	
5650	0	34904	32738	
5651	0	35480	29579	
5652	0	37285	31094	
5653	0	38592	33460	
5654	0	37164	33660	
5655	0	36050	31168	
5656	0	34725	29272	
5657	0	32032	28058	
5658	0	34056	30144	
5659	0	35462	32904	
5660	0	33472	34624	
5661	0	29852	35386	
5662	0	23984	34434	
5663	0	16080	32978	
5664	0	7329	31900	
5665	0	6817	31300	
5666	0	9984	31292	
5667	0	18860	30348	
5668	0	27408	30440	
5669	0	38276	31792	
5670	0	46088	32578	
5671	0	49586	32208	
5672	0	51060	32263	
5673	0	50920	33144	
5674	0	48360	34066	
5675	0	43744	34521	
5676	0	37750	34281	
5677	0	34454	35258	
5678	0	32464	32833	
5679	0	31408	32302	
5680	0	28882	32683	
5681	0	28974	32954	
5682	0	28176	32792	
5683	0	24368	32736	
5684	0	24802	33352	
5685	0	28258	33248	
5686	0	33852	33478	
5687	0	41082	34401	
5688	0	42156	33971	
5689	0	40088	33181	
5690	0	36773	32218	
5691	0	34456	31357	
5692	0	32604	31298	
5693	0	30084	31166	
5694	0	31752	30744	
5695	0	33114	31028	
5696	0	31208	32125	
5697	0	28998	32292	
5698	0	29998	32590	
5699	0	29666	32298	
5700	0	27700	33524	
5701	0	26560	34490	
5702	0	28140	33124	
5703	0	27552	32287	
5704	0	28522	31331	
5705	0	35104	31756	
5706	0	43208	32280	
5707	0	47024	34491	
5708	0	45762	35248	
5709	0	44082	35426	
5710	0	38848	34451	
5711	0	34048	33316	
5712	0	31412	31400	
5713	0	28249	31673	
5714	0	27296	32636	
5715	0	25976	33321	
5716	0	21748	33647	
5717	0	17964	31824	
5718	0	19184	29465	
5719	0	23546	27552	
5720	0	26918	29964	
5721	0	32196	33900	
5722	0	39380	33994	
5723	0	42314	33778	
5724	0	40696	35335	
5725	0	36742	37184	
5726	0	34180	36898	
5727	0	31084	33408	
5728	0	28528	32030	
5729	0	30004	35000	
5730	0	34360	36470	
5731	0	35720	34665	
5732	0	37792	29858	
5733	0	42848	27944	
5734	0	45888	28252	
5735	0	42776	29615	
5736	0	36784	29776	
5737	0	33992	31782	
5738	0	32298	32326	
5739	0	31484	33344	
5740	0	30008	34207	
5741	0	33068	33348	
5742	0	38322	32196	
5743	0	34312	31856	
5744	0	26216	32648	
5745	0	18596	34036	
5746	0	10866	33906	
5747	0	6480	34460	
5748	0	8576	34973	
5749	0	17597	32976	
5750	0	28904	32218	
5751	0	37464	30357	
5752	0	42208	30698	
